Folder: Date_latest/HOPG_cv/1mM (part 4)

File: AgNO3_HOPG_1mM_4_80mv_cv.DTA
EXPLAIN
TAG	CV
TITLE	LABEL	Cyclic Voltammetry	Test &Identifier
DATE	LABEL	7/4/2022	Date
TIME	LABEL	20:09:53	Time
NOTES	NOTES	2	&Notes...
	07/04/22 , 1mM  AgNO3

PSTAT	PSTAT	IFC1000-09004	Potentiostat
VINIT	POTEN	1,00000E-001	F	Initial &E (V)
VLIMIT1	POTEN	1,00000E-001	F	Scan Limit &1 (V)
VLIMIT2	POTEN	8,00000E-001	F	Scan Limit &2 (V)
VFINAL	POTEN	1,00000E-001	F	Final &E (V)
SCANRATE	QUANT	7,99998E+001	&Scan Rate (mV/s)
STEPSIZE	QUANT	1,00000E+000	St&ep Size (mV)
CYCLES	IQUANT	1	C&ycles (#)
IMODE	SELECTOR	0	I/E Range &Mode
IRANGE	QUANT	1,00000E-005	&Max Current (mA)
AREA	QUANT	1,00000E+000	Electrode &Area (cm^2)
ELECTRODETYPE	SELECTOR	0	Electrode Type
STRIPPING	TOGGLE	F	Used for Stripping
POLARITY	TOGGLE	F	Signal Polarity
CONDIT	TWOPARAM	F	1,50000E+001	0,00000E+000	Conditionin&g	Time(s)	E(V)
DELAY	TWOPARAM	F	3,00000E+001	0,00000E+000	Init. De&lay	Time(s)	Stab.(mV/s)
EQDELAY	QUANT	1,00000E+001	Equil. &Time (s)
IRCOMP	SELECTOR	0	IRCom&p
PFCOR	QUANT	5,00000E+001	PF Corr. (ohm)
SAMPLINGMODE	SELECTOR	0	Sampling &Mode
EOC	QUANT	0	Open Circuit (V)
PSTATMODEL	IQUANT	48	Pstat Model
PSTATSECTION	LABEL	IFC1000-09004	Pstat Section
PSTATSERIALNO	LABEL	09004	Pstat Serial Number
CTRLMODE	IQUANT	1	Control Mode
ELECTROMETER	IQUANT	0	RE=0 or CS=1
IESTAB	IQUANT	2	I/E Stability
CASPEED	IQUANT	4	Control Amp Speed
CONVENTION	IQUANT	1	Current Convention
ICHRANGE	IQUANT	2	Ich Range
ICHRANGEMODE	TOGGLE	F	Ich Auto Range
ICHOFFSETENABLE	TOGGLE	F	Ich Offset Enable
ICHOFFSET	QUANT	0	Ich Offset (V)
ICHFILTER	IQUANT	3	Ich Filter
VCHRANGE	IQUANT	2	Vch Range
VCHRANGEMODE	TOGGLE	F	Vch Auto Range
VCHOFFSETENABLE	TOGGLE	F	Vch Offset Enable
VCHOFFSET	QUANT	0	Vch Offset (V)
VCHFILTER	IQUANT	3	Vch Filter
IERANGELOWERLIMIT	IQUANT	4	I/E Range Lower Limit
IERANGEMODE	TOGGLE	T	I/E AutoRange
IERANGE	IQUANT	5	I/E Range
ACHSELECT	IQUANT	0	Ach Select
ACHRANGE	IQUANT	2	Ach Range
ACHOFFSETENABLE	TOGGLE	F	Ach Offset Enable
ACHOFFSET	QUANT	0	Ach Offset (V)
ACHFILTER	IQUANT	1	Ach Filter
CABLEID	IQUANT	14	Cable ID
DCCALDATE	LABEL	3/18/2022	DC Calibration Date
ACCALDATE	LABEL	3/10/2016	AC Calibration Date
FRAMEWORKVERSION	QUANT	7,05	Framework Version
INSTRUMENTVERSION	LABEL	4.21	Instrument Version
CURVE1	TABLE
	Pt	T	Vf	Im	Vu	Sig	Ach	IERange	Over	Temp
	#	s	V vs. Ref.	A	V	V	V	#	bits	deg C
	0	0,0125	9,97968E-002	-7,19738E-006	0,00000E+000	1,00006E-001	0,00000E+000	8	...........	-32768,00
	15	0,2	1,14811E-001	-6,65284E-006	0,00000E+000	1,14995E-001	0,00000E+000	8	...........	-32768,00
	30	0,3875	1,29826E-001	-6,31877E-006	0,00000E+000	1,29996E-001	0,00000E+000	8	...........	-32768,00
	45	0,575	1,44840E-001	-6,08491E-006	0,00000E+000	1,44997E-001	0,00000E+000	8	...........	-32768,00
	60	0,7625	1,59754E-001	-5,90117E-006	0,00000E+000	1,59999E-001	0,00000E+000	8	...........	-32768,00
	75	0,95	1,74769E-001	-5,76086E-006	0,00000E+000	1,75000E-001	0,00000E+000	8	...........	-32768,00
	90	1,1375	1,89783E-001	-5,62389E-006	0,00000E+000	1,90001E-001	0,00000E+000	8	...........	-32768,00
	105	1,325	2,04798E-001	-5,51699E-006	0,00000E+000	2,05002E-001	0,00000E+000	8	...........	-32768,00
	120	1,5125	2,19812E-001	-5,44015E-006	0,00000E+000	2,20003E-001	0,00000E+000	8	...........	-32768,00
	135	1,7	2,34827E-001	-5,34327E-006	0,00000E+000	2,35005E-001	0,00000E+000	8	...........	-32768,00
	150	1,8875	2,49741E-001	-5,24973E-006	0,00000E+000	2,50006E-001	0,00000E+000	8	...........	-32768,00
	165	2,075	2,64855E-001	-5,15285E-006	0,00000E+000	2,64994E-001	0,00000E+000	8	...........	-32768,00
	180	2,2625	2,79870E-001	-5,04595E-006	0,00000E+000	2,79996E-001	0,00000E+000	8	...........	-32768,00
	195	2,45	2,94784E-001	-4,91900E-006	0,00000E+000	2,94997E-001	0,00000E+000	8	...........	-32768,00
	210	2,6375	3,09799E-001	-4,71187E-006	0,00000E+000	3,09998E-001	0,00000E+000	8	...........	-32768,00
	225	2,825	3,24813E-001	-4,44461E-006	0,00000E+000	3,24999E-001	0,00000E+000	8	...........	-32768,00
	240	3,0125	3,39827E-001	-4,07379E-006	0,00000E+000	3,40000E-001	0,00000E+000	8	...........	-32768,00
	255	3,2	3,54742E-001	-3,52925E-006	0,00000E+000	3,55002E-001	0,00000E+000	8	...........	-32768,00
	270	3,3875	3,69756E-001	-2,74752E-006	0,00000E+000	3,70003E-001	0,00000E+000	8	...........	-32768,00
	285	3,575	3,84871E-001	-1,71189E-006	0,00000E+000	3,85004E-001	0,00000E+000	8	...........	-32768,00
	300	3,7625	3,99885E-001	-4,32389E-007	0,00000E+000	4,00005E-001	0,00000E+000	8	...........	-32768,00
	315	3,95	4,14900E-001	1,11771E-006	0,00000E+000	4,14994E-001	0,00000E+000	8	...........	-32768,00
	330	4,1375	4,29814E-001	3,00857E-006	0,00000E+000	4,29995E-001	0,00000E+000	8	...........	-32768,00
	345	4,325	4,44728E-001	5,46401E-006	0,00000E+000	4,44996E-001	0,00000E+000	8	...........	-32768,00
	360	4,5125	4,59843E-001	8,86822E-006	0,00000E+000	4,59998E-001	0,00000E+000	8	...........	-32768,00
	375	4,7	4,74757E-001	1,36388E-005	0,00000E+000	4,74999E-001	0,00000E+000	8	...........	-32768,00
	390	4,8875	4,89872E-001	2,02635E-005	0,00000E+000	4,90000E-001	0,00000E+000	8	...........	-32768,00
	405	5,075	5,04886E-001	2,89962E-005	0,00000E+000	5,05001E-001	0,00000E+000	8	...........	-32768,00
	420	5,2625	5,19800E-001	4,00607E-005	0,00000E+000	5,20002E-001	0,00000E+000	8	...........	-32768,00
	435	5,45	5,34815E-001	5,33768E-005	0,00000E+000	5,35004E-001	0,00000E+000	8	...........	-32768,00
	450	5,6375	5,49929E-001	6,87409E-005	0,00000E+000	5,50005E-001	0,00000E+000	8	...........	-32768,00
	465	5,825	5,64744E-001	8,58989E-005	0,00000E+000	5,65006E-001	0,00000E+000	8	...........	-32768,00
	480	6,0125	5,79858E-001	1,04500E-004	0,00000E+000	5,79995E-001	0,00000E+000	9	...........	-32768,00
	495	6,2	5,94872E-001	1,24061E-004	0,00000E+000	5,94996E-001	0,00000E+000	9	...........	-32768,00
	510	6,3875	6,09887E-001	1,43689E-004	0,00000E+000	6,09997E-001	0,00000E+000	9	...........	-32768,00
	525	6,575	6,24801E-001	1,62983E-004	0,00000E+000	6,24998E-001	0,00000E+000	9	...........	-32768,00
	540	6,7625	6,39816E-001	1,76001E-004	0,00000E+000	6,40000E-001	0,00000E+000	9	...........	-32768,00
	555	6,95	6,54930E-001	1,51066E-004	0,00000E+000	6,55001E-001	0,00000E+000	9	...........	-32768,00
	570	7,1375	6,69945E-001	4,21720E-005	0,00000E+000	6,70002E-001	0,00000E+000	8	...........	-32768,00
	585	7,325	6,84859E-001	2,38247E-005	0,00000E+000	6,85003E-001	0,00000E+000	8	...........	-32768,00
	600	7,5125	6,99973E-001	1,73136E-005	0,00000E+000	7,00004E-001	0,00000E+000	8	...........	-32768,00
	615	7,7	7,14888E-001	1,39628E-005	0,00000E+000	7,15006E-001	0,00000E+000	8	...........	-32768,00
	630	7,8875	7,29902E-001	1,19083E-005	0,00000E+000	7,29994E-001	0,00000E+000	8	...........	-32768,00
	645	8,075	7,45017E-001	1,05753E-005	0,00000E+000	7,44995E-001	0,00000E+000	8	...........	-32768,00
	660	8,2625	7,59931E-001	9,60652E-006	0,00000E+000	7,59997E-001	0,00000E+000	8	...........	-32768,00
	675	8,45	7,74945E-001	8,90831E-006	0,00000E+000	7,74998E-001	0,00000E+000	8	...........	-32768,00
	690	8,6375	7,90060E-001	8,38715E-006	0,00000E+000	7,89999E-001	0,00000E+000	8	...........	-32768,00
	705	8,825	7,94965E-001	7,49184E-006	0,00000E+000	7,94999E-001	0,00000E+000	8	...........	-32768,00
	720	9,0125	7,79950E-001	6,17893E-006	0,00000E+000	7,79998E-001	0,00000E+000	8	...........	-32768,00
	735	9,2	7,64936E-001	5,21346E-006	0,00000E+000	7,64997E-001	0,00000E+000	8	...........	-32768,00
[...]
	900	11,2625	5,99877E-001	1,11437E-006	0,00000E+000	5,99996E-001	0,00000E+000	8	...........	-32768,00
	915	11,45	5,84863E-001	8,50453E-007	0,00000E+000	5,84995E-001	0,00000E+000	8	...........	-32768,00
	930	11,6375	5,69848E-001	5,63150E-007	0,00000E+000	5,69994E-001	0,00000E+000	8	...........	-32768,00
	945	11,825	5,54934E-001	3,05913E-007	0,00000E+000	5,55005E-001	0,00000E+000	8	...........	-32768,00
	960	12,0125	5,39820E-001	1,48899E-007	0,00000E+000	5,40004E-001	0,00000E+000	8	...........	-32768,00
	975	12,2	5,24905E-001	4,86768E-008	0,00000E+000	5,25003E-001	0,00000E+000	8	...........	-32768,00
	990	12,3875	5,09791E-001	-4,82046E-008	0,00000E+000	5,10002E-001	0,00000E+000	8	...........	-32768,00
	1005	12,575	4,94876E-001	-1,45086E-007	0,00000E+000	4,95000E-001	0,00000E+000	8	...........	-32768,00
	1020	12,7625	4,79762E-001	-2,38627E-007	0,00000E+000	4,79999E-001	0,00000E+000	8	...........	-32768,00
	1035	12,95	4,64747E-001	-4,05663E-007	0,00000E+000	4,64998E-001	0,00000E+000	8	...........	-32768,00
	1050	13,1375	4,49933E-001	-6,59559E-007	0,00000E+000	4,49997E-001	0,00000E+000	8	...........	-32768,00
	1065	13,325	4,34819E-001	-2,90787E-006	0,00000E+000	4,34996E-001	0,00000E+000	8	...........	-32768,00
	1080	13,5125	4,19804E-001	-1,57664E-005	0,00000E+000	4,19994E-001	0,00000E+000	8	...........	-32768,00
	1095	13,7	4,04890E-001	-3,79689E-005	0,00000E+000	4,05006E-001	0,00000E+000	8	...........	-32768,00
	1110	13,8875	3,89876E-001	-5,41247E-005	0,00000E+000	3,90004E-001	0,00000E+000	8	...........	-32768,00
	1125	14,075	3,74861E-001	-5,95668E-005	0,00000E+000	3,75003E-001	0,00000E+000	8	...........	-32768,00
	1140	14,2625	3,59847E-001	-5,79966E-005	0,00000E+000	3,60002E-001	0,00000E+000	8	...........	-32768,00
	1155	14,45	3,44832E-001	-5,34766E-005	0,00000E+000	3,45001E-001	0,00000E+000	8	...........	-32768,00
	1170	14,6375	3,29818E-001	-4,83385E-005	0,00000E+000	3,30000E-001	0,00000E+000	8	...........	-32768,00
	1185	14,825	3,14703E-001	-4,36649E-005	0,00000E+000	3,14998E-001	0,00000E+000	8	...........	-32768,00
	1200	15,0125	2,99789E-001	-3,95123E-005	0,00000E+000	2,99997E-001	0,00000E+000	8	...........	-32768,00
	1215	15,2	2,84775E-001	-3,59244E-005	0,00000E+000	2,84996E-001	0,00000E+000	8	...........	-32768,00
	1230	15,3875	2,69860E-001	-3,28743E-005	0,00000E+000	2,69995E-001	0,00000E+000	8	...........	-32768,00
	1245	15,575	2,54846E-001	-3,02618E-005	0,00000E+000	2,55006E-001	0,00000E+000	8	...........	-32768,00
	1260	15,7625	2,39831E-001	-2,80670E-005	0,00000E+000	2,40005E-001	0,00000E+000	8	...........	-32768,00
	1275	15,95	2,24717E-001	-2,61995E-005	0,00000E+000	2,25004E-001	0,00000E+000	8	...........	-32768,00
	1290	16,1375	2,09803E-001	-2,46126E-005	0,00000E+000	2,10003E-001	0,00000E+000	8	...........	-32768,00
	1305	16,325	1,94888E-001	-2,32530E-005	0,00000E+000	1,95001E-001	0,00000E+000	8	...........	-32768,00
	1320	16,5125	1,79774E-001	-2,20937E-005	0,00000E+000	1,80000E-001	0,00000E+000	8	...........	-32768,00
	1335	16,7	1,64759E-001	-2,10681E-005	0,00000E+000	1,64999E-001	0,00000E+000	8	...........	-32768,00
	1350	16,8875	1,49745E-001	-2,01661E-005	0,00000E+000	1,49998E-001	0,00000E+000	8	...........	-32768,00
	1365	17,075	1,34831E-001	-1,93844E-005	0,00000E+000	1,34997E-001	0,00000E+000	8	...........	-32768,00
	1380	17,2625	1,19716E-001	-1,86895E-005	0,00000E+000	1,19995E-001	0,00000E+000	8	...........	-32768,00
	1395	17,45	1,04702E-001	-1,81116E-005	0,00000E+000	1,04994E-001	0,00000E+000	8	...........	-32768,00
	1400	17,5125	9,96967E-002	-1,79378E-005	0,00000E+000	1,00006E-001	0,00000E+000	8	...........	-32768,00

File: AgNO3_HOPG_1mM_4_100mv_cv.DTA
EXPLAIN
TAG	CV
TITLE	LABEL	Cyclic Voltammetry	Test &Identifier
DATE	LABEL	7/4/2022	Date
TIME	LABEL	20:12:42	Time
NOTES	NOTES	2	&Notes...
	07/04/22 , 1mM  AgNO3

PSTAT	PSTAT	IFC1000-09004	Potentiostat
VINIT	POTEN	1,00000E-001	F	Initial &E (V)
VLIMIT1	POTEN	1,00000E-001	F	Scan Limit &1 (V)
VLIMIT2	POTEN	8,00000E-001	F	Scan Limit &2 (V)
VFINAL	POTEN	1,00000E-001	F	Final &E (V)
SCANRATE	QUANT	9,99998E+001	&Scan Rate (mV/s)
STEPSIZE	QUANT	1,00000E+000	St&ep Size (mV)
CYCLES	IQUANT	1	C&ycles (#)
IMODE	SELECTOR	0	I/E Range &Mode
IRANGE	QUANT	1,00000E-005	&Max Current (mA)
AREA	QUANT	1,00000E+000	Electrode &Area (cm^2)
ELECTRODETYPE	SELECTOR	0	Electrode Type
STRIPPING	TOGGLE	F	Used for Stripping
POLARITY	TOGGLE	F	Signal Polarity
CONDIT	TWOPARAM	F	1,50000E+001	0,00000E+000	Conditionin&g	Time(s)	E(V)
DELAY	TWOPARAM	F	3,00000E+001	0,00000E+000	Init. De&lay	Time(s)	Stab.(mV/s)
EQDELAY	QUANT	1,00000E+001	Equil. &Time (s)
IRCOMP	SELECTOR	0	IRCom&p
PFCOR	QUANT	5,00000E+001	PF Corr. (ohm)
SAMPLINGMODE	SELECTOR	0	Sampling &Mode
EOC	QUANT	0	Open Circuit (V)
PSTATMODEL	IQUANT	48	Pstat Model
PSTATSECTION	LABEL	IFC1000-09004	Pstat Section
PSTATSERIALNO	LABEL	09004	Pstat Serial Number
CTRLMODE	IQUANT	1	Control Mode
ELECTROMETER	IQUANT	0	RE=0 or CS=1
IESTAB	IQUANT	2	I/E Stability
CASPEED	IQUANT	4	Control Amp Speed
CONVENTION	IQUANT	1	Current Convention
ICHRANGE	IQUANT	2	Ich Range
ICHRANGEMODE	TOGGLE	F	Ich Auto Range
ICHOFFSETENABLE	TOGGLE	F	Ich Offset Enable
ICHOFFSET	QUANT	0	Ich Offset (V)
ICHFILTER	IQUANT	3	Ich Filter
VCHRANGE	IQUANT	2	Vch Range
VCHRANGEMODE	TOGGLE	F	Vch Auto Range
VCHOFFSETENABLE	TOGGLE	F	Vch Offset Enable
VCHOFFSET	QUANT	0	Vch Offset (V)
VCHFILTER	IQUANT	3	Vch Filter
IERANGELOWERLIMIT	IQUANT	4	I/E Range Lower Limit
IERANGEMODE	TOGGLE	T	I/E AutoRange
IERANGE	IQUANT	5	I/E Range
ACHSELECT	IQUANT	0	Ach Select
ACHRANGE	IQUANT	2	Ach Range
ACHOFFSETENABLE	TOGGLE	F	Ach Offset Enable
ACHOFFSET	QUANT	0	Ach Offset (V)
ACHFILTER	IQUANT	1	Ach Filter
CABLEID	IQUANT	14	Cable ID
DCCALDATE	LABEL	3/18/2022	DC Calibration Date
ACCALDATE	LABEL	3/10/2016	AC Calibration Date
FRAMEWORKVERSION	QUANT	7,05	Framework Version
INSTRUMENTVERSION	LABEL	4.21	Instrument Version
CURVE1	TABLE
	Pt	T	Vf	Im	Vu	Sig	Ach	IERange	Over	Temp
	#	s	V vs. Ref.	A	V	V	V	#	bits	deg C
	0	0,01	9,97968E-002	-7,18402E-006	0,00000E+000	1,00006E-001	0,00000E+000	8	...........	-32768,00
	14	0,15	1,13810E-001	-6,58937E-006	0,00000E+000	1,13995E-001	0,00000E+000	8	...........	-32768,00
	28	0,29	1,27724E-001	-6,27200E-006	0,00000E+000	1,27996E-001	0,00000E+000	8	...........	-32768,00
	42	0,43	1,41837E-001	-6,04149E-006	0,00000E+000	1,41997E-001	0,00000E+000	8	...........	-32768,00
	56	0,57	1,55751E-001	-5,85774E-006	0,00000E+000	1,55998E-001	0,00000E+000	8	...........	-32768,00
	70	0,71	1,69764E-001	-5,71409E-006	0,00000E+000	1,69999E-001	0,00000E+000	8	...........	-32768,00
	84	0,85	1,83778E-001	-5,59049E-006	0,00000E+000	1,84000E-001	0,00000E+000	8	...........	-32768,00
	98	0,99	1,97791E-001	-5,48692E-006	0,00000E+000	1,98002E-001	0,00000E+000	8	...........	-32768,00
	112	1,13	2,11804E-001	-5,39672E-006	0,00000E+000	2,12003E-001	0,00000E+000	8	...........	-32768,00
	126	1,27	2,25818E-001	-5,29650E-006	0,00000E+000	2,26004E-001	0,00000E+000	8	...........	-32768,00
	140	1,41	2,39831E-001	-5,21966E-006	0,00000E+000	2,40005E-001	0,00000E+000	8	...........	-32768,00
	154	1,55	2,53845E-001	-5,12946E-006	0,00000E+000	2,54006E-001	0,00000E+000	8	...........	-32768,00
	168	1,69	2,67758E-001	-5,01922E-006	0,00000E+000	2,67995E-001	0,00000E+000	8	...........	-32768,00
	182	1,83	2,81872E-001	-4,90563E-006	0,00000E+000	2,81996E-001	0,00000E+000	8	...........	-32768,00
	196	1,97	2,95885E-001	-4,74862E-006	0,00000E+000	2,95997E-001	0,00000E+000	8	...........	-32768,00
	210	2,11	3,09799E-001	-4,55820E-006	0,00000E+000	3,09998E-001	0,00000E+000	8	...........	-32768,00
	224	2,25	3,23812E-001	-4,26421E-006	0,00000E+000	3,23999E-001	0,00000E+000	8	...........	-32768,00
	238	2,39	3,37926E-001	-3,90341E-006	0,00000E+000	3,38000E-001	0,00000E+000	8	...........	-32768,00
	252	2,53	3,51839E-001	-3,35887E-006	0,00000E+000	3,52001E-001	0,00000E+000	8	...........	-32768,00
	266	2,67	3,65852E-001	-2,61389E-006	0,00000E+000	3,66003E-001	0,00000E+000	8	...........	-32768,00
	280	2,81	3,79866E-001	-1,64174E-006	0,00000E+000	3,80004E-001	0,00000E+000	8	...........	-32768,00
	294	2,95	3,93779E-001	-4,45752E-007	0,00000E+000	3,94005E-001	0,00000E+000	8	...........	-32768,00
	308	3,09	4,07793E-001	9,80742E-007	0,00000E+000	4,08006E-001	0,00000E+000	8	...........	-32768,00
	322	3,23	4,21806E-001	2,68452E-006	0,00000E+000	4,21995E-001	0,00000E+000	8	...........	-32768,00
	336	3,37	4,35820E-001	4,89274E-006	0,00000E+000	4,35996E-001	0,00000E+000	8	...........	-32768,00
	350	3,51	4,49833E-001	7,80587E-006	0,00000E+000	4,49997E-001	0,00000E+000	8	...........	-32768,00
	364	3,65	4,63847E-001	1,16878E-005	0,00000E+000	4,63998E-001	0,00000E+000	8	...........	-32768,00
	378	3,79	4,77860E-001	1,68893E-005	0,00000E+000	4,77999E-001	0,00000E+000	8	...........	-32768,00
	392	3,93	4,91874E-001	2,37378E-005	0,00000E+000	4,92000E-001	0,00000E+000	8	...........	-32768,00
	406	4,07	5,05887E-001	3,25006E-005	0,00000E+000	5,06001E-001	0,00000E+000	8	...........	-32768,00
	420	4,21	5,19901E-001	4,33346E-005	0,00000E+000	5,20002E-001	0,00000E+000	8	...........	-32768,00
	434	4,35	5,33914E-001	5,61296E-005	0,00000E+000	5,34003E-001	0,00000E+000	8	...........	-32768,00
	448	4,49	5,47927E-001	7,06484E-005	0,00000E+000	5,48005E-001	0,00000E+000	8	...........	-32768,00
	462	4,63	5,61941E-001	8,67475E-005	0,00000E+000	5,62006E-001	0,00000E+000	8	...........	-32768,00
	476	4,77	5,75854E-001	1,04166E-004	0,00000E+000	5,75994E-001	0,00000E+000	9	...........	-32768,00
	490	4,91	5,89868E-001	1,22826E-004	0,00000E+000	5,89996E-001	0,00000E+000	9	...........	-32768,00
	504	5,05	6,03881E-001	1,41986E-004	0,00000E+000	6,03997E-001	0,00000E+000	9	...........	-32768,00
	518	5,19	6,17895E-001	1,61113E-004	0,00000E+000	6,17998E-001	0,00000E+000	9	...........	-32768,00
	532	5,33	6,31908E-001	1,79439E-004	0,00000E+000	6,31999E-001	0,00000E+000	9	...........	-32768,00
	546	5,47	6,45922E-001	1,90655E-004	0,00000E+000	6,46000E-001	0,00000E+000	9	...........	-32768,00
	560	5,61	6,59935E-001	1,73397E-004	0,00000E+000	6,60001E-001	0,00000E+000	9	...........	-32768,00
	574	5,75	6,73948E-001	6,71540E-005	0,00000E+000	6,74002E-001	0,00000E+000	8	...........	-32768,00
	588	5,89	6,88062E-001	3,40908E-005	0,00000E+000	6,88003E-001	0,00000E+000	8	...........	-32768,00
	602	6,03	7,01975E-001	2,43325E-005	0,00000E+000	7,02004E-001	0,00000E+000	8	...........	-32768,00
	616	6,17	7,15889E-001	1,94650E-005	0,00000E+000	7,16006E-001	0,00000E+000	8	...........	-32768,00
	630	6,31	7,30002E-001	1,66154E-005	0,00000E+000	7,29994E-001	0,00000E+000	8	...........	-32768,00
	644	6,45	7,43916E-001	1,47212E-005	0,00000E+000	7,43995E-001	0,00000E+000	8	...........	-32768,00
	658	6,59	7,57829E-001	1,33682E-005	0,00000E+000	7,57996E-001	0,00000E+000	8	...........	-32768,00
	672	6,73	7,71943E-001	1,23960E-005	0,00000E+000	7,71998E-001	0,00000E+000	8	...........	-32768,00
	686	6,87	7,85956E-001	1,16644E-005	0,00000E+000	7,85999E-001	0,00000E+000	8	...........	-32768,00
[...]
	910	9,11	5,89968E-001	1,22128E-006	0,00000E+000	5,89996E-001	0,00000E+000	8	...........	-32768,00
	924	9,25	5,75954E-001	8,60476E-007	0,00000E+000	5,75994E-001	0,00000E+000	8	...........	-32768,00
	938	9,39	5,61841E-001	5,23061E-007	0,00000E+000	5,62006E-001	0,00000E+000	8	...........	-32768,00
	952	9,53	5,47827E-001	2,52462E-007	0,00000E+000	5,48005E-001	0,00000E+000	8	...........	-32768,00
	966	9,67	5,33914E-001	9,87878E-008	0,00000E+000	5,34003E-001	0,00000E+000	8	...........	-32768,00
	980	9,81	5,19800E-001	-3,48416E-008	0,00000E+000	5,20002E-001	0,00000E+000	8	...........	-32768,00
	994	9,95	5,05887E-001	-1,31723E-007	0,00000E+000	5,06001E-001	0,00000E+000	8	...........	-32768,00
	1008	10,09	4,91874E-001	-2,62012E-007	0,00000E+000	4,92000E-001	0,00000E+000	8	...........	-32768,00
	1022	10,23	4,77860E-001	-4,42411E-007	0,00000E+000	4,77999E-001	0,00000E+000	8	...........	-32768,00
	1036	10,37	4,63947E-001	-6,46196E-007	0,00000E+000	4,63998E-001	0,00000E+000	8	...........	-32768,00
	1050	10,51	4,49833E-001	-9,36840E-007	0,00000E+000	4,49997E-001	0,00000E+000	8	...........	-32768,00
	1064	10,65	4,35720E-001	-2,43683E-006	0,00000E+000	4,35996E-001	0,00000E+000	8	...........	-32768,00
	1078	10,79	4,21806E-001	-1,20749E-005	0,00000E+000	4,21995E-001	0,00000E+000	8	...........	-32768,00
	1092	10,93	4,07893E-001	-3,28876E-005	0,00000E+000	4,08006E-001	0,00000E+000	8	...........	-32768,00
	1106	11,07	3,93879E-001	-5,31726E-005	0,00000E+000	3,94005E-001	0,00000E+000	8	...........	-32768,00
	1120	11,21	3,79766E-001	-6,42705E-005	0,00000E+000	3,80004E-001	0,00000E+000	8	...........	-32768,00
	1134	11,35	3,65852E-001	-6,67961E-005	0,00000E+000	3,66003E-001	0,00000E+000	8	...........	-32768,00
	1148	11,49	3,51839E-001	-6,42271E-005	0,00000E+000	3,52001E-001	0,00000E+000	8	...........	-32768,00
	1162	11,63	3,37826E-001	-5,94799E-005	0,00000E+000	3,38000E-001	0,00000E+000	8	...........	-32768,00
	1176	11,77	3,23812E-001	-5,43352E-005	0,00000E+000	3,23999E-001	0,00000E+000	8	...........	-32768,00
	1190	11,91	3,09799E-001	-4,95145E-005	0,00000E+000	3,09998E-001	0,00000E+000	8	...........	-32768,00
	1204	12,05	2,95785E-001	-4,52283E-005	0,00000E+000	2,95997E-001	0,00000E+000	8	...........	-32768,00
	1218	12,19	2,81872E-001	-4,14666E-005	0,00000E+000	2,81996E-001	0,00000E+000	8	...........	-32768,00
	1232	12,33	2,67858E-001	-3,81593E-005	0,00000E+000	2,67995E-001	0,00000E+000	8	...........	-32768,00
	1246	12,47	2,53845E-001	-3,53063E-005	0,00000E+000	2,54006E-001	0,00000E+000	8	...........	-32768,00
	1260	12,61	2,39831E-001	-3,28175E-005	0,00000E+000	2,40005E-001	0,00000E+000	8	...........	-32768,00
	1274	12,75	2,25918E-001	-3,06661E-005	0,00000E+000	2,26004E-001	0,00000E+000	8	...........	-32768,00
	1288	12,89	2,11704E-001	-2,88621E-005	0,00000E+000	2,12003E-001	0,00000E+000	8	...........	-32768,00
	1302	13,03	1,97791E-001	-2,72852E-005	0,00000E+000	1,98002E-001	0,00000E+000	8	...........	-32768,00
	1316	13,17	1,83778E-001	-2,59255E-005	0,00000E+000	1,84000E-001	0,00000E+000	8	...........	-32768,00
	1330	13,31	1,69764E-001	-2,47463E-005	0,00000E+000	1,69999E-001	0,00000E+000	8	...........	-32768,00
	1344	13,45	1,55751E-001	-2,37006E-005	0,00000E+000	1,55998E-001	0,00000E+000	8	...........	-32768,00
	1358	13,59	1,41837E-001	-2,27652E-005	0,00000E+000	1,41997E-001	0,00000E+000	8	...........	-32768,00
	1372	13,73	1,27824E-001	-2,19400E-005	0,00000E+000	1,27996E-001	0,00000E+000	8	...........	-32768,00
	1386	13,87	1,13710E-001	-2,12084E-005	0,00000E+000	1,13995E-001	0,00000E+000	8	...........	-32768,00
	1400	14,01	9,97968E-002	-2,05436E-005	0,00000E+000	1,00006E-001	0,00000E+000	8	...........	-32768,00