Folder: Date_latest/HOPG_cv/1mM (part 2)

File: AgNO3_HOPG_1mM_3_50mv_cv.DTA
EXPLAIN
TAG	CV
TITLE	LABEL	Cyclic Voltammetry	Test &Identifier
DATE	LABEL	7/4/2022	Date
TIME	LABEL	19:12:51	Time
NOTES	NOTES	2	&Notes...
	07/04/22 , 1mM  AgNO3

PSTAT	PSTAT	IFC1000-09004	Potentiostat
VINIT	POTEN	1,00000E-001	F	Initial &E (V)
VLIMIT1	POTEN	1,00000E-001	F	Scan Limit &1 (V)
VLIMIT2	POTEN	8,00000E-001	F	Scan Limit &2 (V)
VFINAL	POTEN	1,00000E-001	F	Final &E (V)
SCANRATE	QUANT	4,99999E+001	&Scan Rate (mV/s)
STEPSIZE	QUANT	1,00000E+000	St&ep Size (mV)
CYCLES	IQUANT	1	C&ycles (#)
IMODE	SELECTOR	0	I/E Range &Mode
IRANGE	QUANT	1,00000E-005	&Max Current (mA)
AREA	QUANT	1,00000E+000	Electrode &Area (cm^2)
ELECTRODETYPE	SELECTOR	0	Electrode Type
STRIPPING	TOGGLE	F	Used for Stripping
POLARITY	TOGGLE	F	Signal Polarity
CONDIT	TWOPARAM	F	1,50000E+001	0,00000E+000	Conditionin&g	Time(s)	E(V)
DELAY	TWOPARAM	F	3,00000E+001	0,00000E+000	Init. De&lay	Time(s)	Stab.(mV/s)
EQDELAY	QUANT	1,00000E+001	Equil. &Time (s)
IRCOMP	SELECTOR	0	IRCom&p
PFCOR	QUANT	5,00000E+001	PF Corr. (ohm)
SAMPLINGMODE	SELECTOR	0	Sampling &Mode
EOC	QUANT	0	Open Circuit (V)
PSTATMODEL	IQUANT	48	Pstat Model
PSTATSECTION	LABEL	IFC1000-09004	Pstat Section
PSTATSERIALNO	LABEL	09004	Pstat Serial Number
CTRLMODE	IQUANT	1	Control Mode
ELECTROMETER	IQUANT	0	RE=0 or CS=1
IESTAB	IQUANT	2	I/E Stability
CASPEED	IQUANT	4	Control Amp Speed
CONVENTION	IQUANT	1	Current Convention
ICHRANGE	IQUANT	2	Ich Range
ICHRANGEMODE	TOGGLE	F	Ich Auto Range
ICHOFFSETENABLE	TOGGLE	F	Ich Offset Enable
ICHOFFSET	QUANT	0	Ich Offset (V)
ICHFILTER	IQUANT	3	Ich Filter
VCHRANGE	IQUANT	2	Vch Range
VCHRANGEMODE	TOGGLE	F	Vch Auto Range
VCHOFFSETENABLE	TOGGLE	F	Vch Offset Enable
VCHOFFSET	QUANT	0	Vch Offset (V)
VCHFILTER	IQUANT	3	Vch Filter
IERANGELOWERLIMIT	IQUANT	4	I/E Range Lower Limit
IERANGEMODE	TOGGLE	T	I/E AutoRange
IERANGE	IQUANT	5	I/E Range
ACHSELECT	IQUANT	0	Ach Select
ACHRANGE	IQUANT	2	Ach Range
ACHOFFSETENABLE	TOGGLE	F	Ach Offset Enable
ACHOFFSET	QUANT	0	Ach Offset (V)
ACHFILTER	IQUANT	1	Ach Filter
CABLEID	IQUANT	14	Cable ID
DCCALDATE	LABEL	3/18/2022	DC Calibration Date
ACCALDATE	LABEL	3/10/2016	AC Calibration Date
FRAMEWORKVERSION	QUANT	7,05	Framework Version
INSTRUMENTVERSION	LABEL	4.21	Instrument Version
CURVE1	TABLE
	Pt	T	Vf	Im	Vu	Sig	Ach	IERange	Over	Temp
	#	s	V vs. Ref.	A	V	V	V	#	bits	deg C
	0	0,02	9,97968E-002	-6,04036E-006	0,00000E+000	1,00006E-001	0,00000E+000	7	...........	-32768,00
	15	0,32	1,14811E-001	-5,53679E-006	0,00000E+000	1,14995E-001	0,00000E+000	7	...........	-32768,00
	30	0,62	1,29726E-001	-5,25209E-006	0,00000E+000	1,29996E-001	0,00000E+000	7	...........	-32768,00
	45	0,92	1,44840E-001	-5,02586E-006	0,00000E+000	1,44997E-001	0,00000E+000	7	...........	-32768,00
	60	1,22	1,59855E-001	-4,84442E-006	0,00000E+000	1,59999E-001	0,00000E+000	7	...........	-32768,00
	75	1,52	1,74869E-001	-4,67433E-006	0,00000E+000	1,75000E-001	0,00000E+000	7	...........	-32768,00
	90	1,82	1,89783E-001	-4,56907E-006	0,00000E+000	1,90001E-001	0,00000E+000	7	...........	-32768,00
	105	2,12	2,04798E-001	-4,46715E-006	0,00000E+000	2,05002E-001	0,00000E+000	7	...........	-32768,00
	120	2,42	2,19812E-001	-4,36390E-006	0,00000E+000	2,20003E-001	0,00000E+000	7	...........	-32768,00
	135	2,72	2,34827E-001	-4,27702E-006	0,00000E+000	2,35005E-001	0,00000E+000	7	...........	-32768,00
	150	3,02	2,49741E-001	-4,17009E-006	0,00000E+000	2,50006E-001	0,00000E+000	7	...........	-32768,00
	165	3,32	2,64855E-001	-4,07719E-006	0,00000E+000	2,64994E-001	0,00000E+000	7	...........	-32768,00
	180	3,62	2,79770E-001	-3,97962E-006	0,00000E+000	2,79996E-001	0,00000E+000	7	...........	-32768,00
	195	3,92	2,94784E-001	-3,86133E-006	0,00000E+000	2,94997E-001	0,00000E+000	7	...........	-32768,00
	210	4,22	3,09799E-001	-3,68857E-006	0,00000E+000	3,09998E-001	0,00000E+000	7	...........	-32768,00
	225	4,52	3,24913E-001	-3,46368E-006	0,00000E+000	3,24999E-001	0,00000E+000	7	...........	-32768,00
	240	4,82	3,39827E-001	-3,16695E-006	0,00000E+000	3,40000E-001	0,00000E+000	7	...........	-32768,00
	255	5,12	3,54842E-001	-2,71450E-006	0,00000E+000	3,55002E-001	0,00000E+000	7	...........	-32768,00
	270	5,42	3,69856E-001	-2,09999E-006	0,00000E+000	3,70003E-001	0,00000E+000	7	...........	-32768,00
	285	5,72	3,84871E-001	-1,30202E-006	0,00000E+000	3,85004E-001	0,00000E+000	7	...........	-32768,00
	300	6,02	3,99885E-001	-3,54016E-007	0,00000E+000	4,00005E-001	0,00000E+000	7	...........	-32768,00
	315	6,32	4,14799E-001	6,29408E-007	0,00000E+000	4,14994E-001	0,00000E+000	7	...........	-32768,00
	330	6,62	4,29814E-001	1,68501E-006	0,00000E+000	4,29995E-001	0,00000E+000	7	...........	-32768,00
	345	6,92	4,44828E-001	3,04269E-006	0,00000E+000	4,44996E-001	0,00000E+000	7	...........	-32768,00
	360	7,22	4,59843E-001	5,04730E-006	0,00000E+000	4,59998E-001	0,00000E+000	7	...........	-32768,00
	375	7,52	4,74857E-001	8,14861E-006	0,00000E+000	4,74999E-001	0,00000E+000	7	...........	-32768,00
	390	7,82	4,89872E-001	1,27134E-005	0,00000E+000	4,90000E-001	0,00000E+000	8	...........	-32768,00
	405	8,12	5,04886E-001	1,90040E-005	0,00000E+000	5,05001E-001	0,00000E+000	8	...........	-32768,00
	420	8,42	5,19901E-001	2,73659E-005	0,00000E+000	5,20002E-001	0,00000E+000	8	...........	-32768,00
	435	8,72	5,34815E-001	3,81297E-005	0,00000E+000	5,35004E-001	0,00000E+000	8	...........	-32768,00
	450	9,02	5,49929E-001	5,17599E-005	0,00000E+000	5,50005E-001	0,00000E+000	8	...........	-32768,00
	465	9,32	5,64944E-001	6,84603E-005	0,00000E+000	5,65006E-001	0,00000E+000	8	...........	-32768,00
	480	9,62	5,79858E-001	8,79735E-005	0,00000E+000	5,79995E-001	0,00000E+000	8	...........	-32768,00
	495	9,92	5,94872E-001	1,09641E-004	0,00000E+000	5,94996E-001	0,00000E+000	9	...........	-32768,00
	510	10,22	6,09787E-001	1,32239E-004	0,00000E+000	6,09997E-001	0,00000E+000	9	...........	-32768,00
	525	10,52	6,24901E-001	1,49397E-004	0,00000E+000	6,24998E-001	0,00000E+000	9	...........	-32768,00
	540	10,82	6,39916E-001	1,52101E-004	0,00000E+000	6,40000E-001	0,00000E+000	9	...........	-32768,00
	555	11,12	6,54930E-001	1,30937E-004	0,00000E+000	6,55001E-001	0,00000E+000	9	...........	-32768,00
	570	11,42	6,69845E-001	6,22866E-005	0,00000E+000	6,70002E-001	0,00000E+000	8	...........	-32768,00
	585	11,72	6,84859E-001	2,78971E-005	0,00000E+000	6,85003E-001	0,00000E+000	8	...........	-32768,00
	600	12,02	6,99873E-001	1,97891E-005	0,00000E+000	7,00004E-001	0,00000E+000	8	...........	-32768,00
	615	12,32	7,14988E-001	1,58103E-005	0,00000E+000	7,15006E-001	0,00000E+000	8	...........	-32768,00
	630	12,62	7,29902E-001	1,36054E-005	0,00000E+000	7,29994E-001	0,00000E+000	8	...........	-32768,00
	645	12,92	7,44917E-001	1,19784E-005	0,00000E+000	7,44995E-001	0,00000E+000	8	...........	-32768,00
	660	13,22	7,59931E-001	1,09328E-005	0,00000E+000	7,59997E-001	0,00000E+000	8	...........	-32768,00
	675	13,52	7,74945E-001	1,02947E-005	0,00000E+000	7,74998E-001	0,00000E+000	8	...........	-32768,00
	690	13,82	7,89960E-001	9,72345E-006	0,00000E+000	7,89999E-001	0,00000E+000	8	...........	-32768,00
	705	14,12	7,94865E-001	8,48738E-006	0,00000E+000	7,94999E-001	0,00000E+000	8	...........	-32768,00
	720	14,42	7,79950E-001	7,04288E-006	0,00000E+000	7,79998E-001	0,00000E+000	7	...........	-32768,00
	735	14,72	7,64836E-001	5,96088E-006	0,00000E+000	7,64997E-001	0,00000E+000	7	...........	-32768,00
[...]
	885	17,72	6,14892E-001	1,61985E-006	0,00000E+000	6,14998E-001	0,00000E+000	7	...........	-32768,00
	900	18,02	5,99977E-001	1,36322E-006	0,00000E+000	5,99996E-001	0,00000E+000	7	...........	-32768,00
	915	18,32	5,84863E-001	1,10959E-006	0,00000E+000	5,84995E-001	0,00000E+000	7	...........	-32768,00
	930	18,62	5,69949E-001	8,20880E-007	0,00000E+000	5,69994E-001	0,00000E+000	7	...........	-32768,00
	945	18,92	5,54934E-001	5,57565E-007	0,00000E+000	5,55005E-001	0,00000E+000	7	...........	-32768,00
	960	19,22	5,39920E-001	3,74781E-007	0,00000E+000	5,40004E-001	0,00000E+000	7	...........	-32768,00
	975	19,52	5,24905E-001	2,55821E-007	0,00000E+000	5,25003E-001	0,00000E+000	7	...........	-32768,00
	990	19,82	5,09891E-001	1,32517E-007	0,00000E+000	5,10002E-001	0,00000E+000	7	...........	-32768,00
	1005	20,12	4,94876E-001	-2,14841E-009	0,00000E+000	4,95000E-001	0,00000E+000	7	...........	-32768,00
	1020	20,42	4,79862E-001	-1,72234E-007	0,00000E+000	4,79999E-001	0,00000E+000	7	...........	-32768,00
	1035	20,72	4,64848E-001	-4,02134E-007	0,00000E+000	4,64998E-001	0,00000E+000	7	...........	-32768,00
	1050	21,02	4,49933E-001	-1,23218E-006	0,00000E+000	4,49997E-001	0,00000E+000	7	...........	-32768,00
	1065	21,32	4,34919E-001	-8,90442E-006	0,00000E+000	4,34996E-001	0,00000E+000	7	...........	-32768,00
	1080	21,62	4,19904E-001	-2,51639E-005	0,00000E+000	4,19994E-001	0,00000E+000	8	...........	-32768,00
	1095	21,92	4,04890E-001	-3,99700E-005	0,00000E+000	4,05006E-001	0,00000E+000	8	...........	-32768,00
	1110	22,22	3,89876E-001	-4,86225E-005	0,00000E+000	3,90004E-001	0,00000E+000	8	...........	-32768,00
	1125	22,52	3,74861E-001	-5,06904E-005	0,00000E+000	3,75003E-001	0,00000E+000	8	...........	-32768,00
	1140	22,82	3,59947E-001	-4,83185E-005	0,00000E+000	3,60002E-001	0,00000E+000	8	...........	-32768,00
	1155	23,12	3,44832E-001	-4,40524E-005	0,00000E+000	3,45001E-001	0,00000E+000	8	...........	-32768,00
	1170	23,42	3,29818E-001	-3,95691E-005	0,00000E+000	3,30000E-001	0,00000E+000	8	...........	-32768,00
	1185	23,72	3,14703E-001	-3,54834E-005	0,00000E+000	3,14998E-001	0,00000E+000	8	...........	-32768,00
	1200	24,02	2,99789E-001	-3,19522E-005	0,00000E+000	2,99997E-001	0,00000E+000	8	...........	-32768,00
	1215	24,32	2,84775E-001	-2,89890E-005	0,00000E+000	2,84996E-001	0,00000E+000	8	...........	-32768,00
	1230	24,62	2,69760E-001	-2,65436E-005	0,00000E+000	2,69995E-001	0,00000E+000	8	...........	-32768,00
	1245	24,92	2,54846E-001	-2,44690E-005	0,00000E+000	2,55006E-001	0,00000E+000	8	...........	-32768,00
	1260	25,22	2,39831E-001	-2,27452E-005	0,00000E+000	2,40005E-001	0,00000E+000	8	...........	-32768,00
	1275	25,52	2,24817E-001	-2,12986E-005	0,00000E+000	2,25004E-001	0,00000E+000	8	...........	-32768,00
	1290	25,82	2,09702E-001	-2,00759E-005	0,00000E+000	2,10003E-001	0,00000E+000	8	...........	-32768,00
	1305	26,12	1,94788E-001	-1,90202E-005	0,00000E+000	1,95001E-001	0,00000E+000	8	...........	-32768,00
	1320	26,42	1,79674E-001	-1,81349E-005	0,00000E+000	1,80000E-001	0,00000E+000	8	...........	-32768,00
	1335	26,72	1,64859E-001	-1,73465E-005	0,00000E+000	1,64999E-001	0,00000E+000	8	...........	-32768,00
	1350	27,02	1,49745E-001	-1,66684E-005	0,00000E+000	1,49998E-001	0,00000E+000	8	...........	-32768,00
	1365	27,32	1,34730E-001	-1,61171E-005	0,00000E+000	1,34997E-001	0,00000E+000	8	...........	-32768,00
	1380	27,62	1,19716E-001	-1,56027E-005	0,00000E+000	1,19995E-001	0,00000E+000	8	...........	-32768,00
	1395	27,92	1,04802E-001	-1,52318E-005	0,00000E+000	1,04994E-001	0,00000E+000	8	...........	-32768,00
	1400	28,02	9,97968E-002	-1,51383E-005	0,00000E+000	1,00006E-001	0,00000E+000	8	...........	-32768,00

File: AgNO3_HOPG_1mM_3_70mv_cv.DTA
EXPLAIN
TAG	CV
TITLE	LABEL	Cyclic Voltammetry	Test &Identifier
DATE	LABEL	7/4/2022	Date
TIME	LABEL	19:28:34	Time
NOTES	NOTES	2	&Notes...
	07/04/22 , 1mM  AgNO3

PSTAT	PSTAT	IFC1000-09004	Potentiostat
VINIT	POTEN	1,00000E-001	F	Initial &E (V)
VLIMIT1	POTEN	1,00000E-001	F	Scan Limit &1 (V)
VLIMIT2	POTEN	8,00000E-001	F	Scan Limit &2 (V)
VFINAL	POTEN	1,00000E-001	F	Final &E (V)
SCANRATE	QUANT	7,00115E+001	&Scan Rate (mV/s)
STEPSIZE	QUANT	1,00000E+000	St&ep Size (mV)
CYCLES	IQUANT	1	C&ycles (#)
IMODE	SELECTOR	0	I/E Range &Mode
IRANGE	QUANT	1,00000E-005	&Max Current (mA)
AREA	QUANT	1,00000E+000	Electrode &Area (cm^2)
ELECTRODETYPE	SELECTOR	0	Electrode Type
STRIPPING	TOGGLE	F	Used for Stripping
POLARITY	TOGGLE	F	Signal Polarity
CONDIT	TWOPARAM	F	1,50000E+001	0,00000E+000	Conditionin&g	Time(s)	E(V)
DELAY	TWOPARAM	F	3,00000E+001	0,00000E+000	Init. De&lay	Time(s)	Stab.(mV/s)
EQDELAY	QUANT	1,00000E+001	Equil. &Time (s)
IRCOMP	SELECTOR	0	IRCom&p
PFCOR	QUANT	5,00000E+001	PF Corr. (ohm)
SAMPLINGMODE	SELECTOR	0	Sampling &Mode
EOC	QUANT	0	Open Circuit (V)
PSTATMODEL	IQUANT	48	Pstat Model
PSTATSECTION	LABEL	IFC1000-09004	Pstat Section
PSTATSERIALNO	LABEL	09004	Pstat Serial Number
CTRLMODE	IQUANT	1	Control Mode
ELECTROMETER	IQUANT	0	RE=0 or CS=1
IESTAB	IQUANT	2	I/E Stability
CASPEED	IQUANT	4	Control Amp Speed
CONVENTION	IQUANT	1	Current Convention
ICHRANGE	IQUANT	2	Ich Range
ICHRANGEMODE	TOGGLE	F	Ich Auto Range
ICHOFFSETENABLE	TOGGLE	F	Ich Offset Enable
ICHOFFSET	QUANT	0	Ich Offset (V)
ICHFILTER	IQUANT	3	Ich Filter
VCHRANGE	IQUANT	2	Vch Range
VCHRANGEMODE	TOGGLE	F	Vch Auto Range
VCHOFFSETENABLE	TOGGLE	F	Vch Offset Enable
VCHOFFSET	QUANT	0	Vch Offset (V)
VCHFILTER	IQUANT	3	Vch Filter
IERANGELOWERLIMIT	IQUANT	4	I/E Range Lower Limit
IERANGEMODE	TOGGLE	T	I/E AutoRange
IERANGE	IQUANT	5	I/E Range
ACHSELECT	IQUANT	0	Ach Select
ACHRANGE	IQUANT	2	Ach Range
ACHOFFSETENABLE	TOGGLE	F	Ach Offset Enable
ACHOFFSET	QUANT	0	Ach Offset (V)
ACHFILTER	IQUANT	1	Ach Filter
CABLEID	IQUANT	14	Cable ID
DCCALDATE	LABEL	3/18/2022	DC Calibration Date
ACCALDATE	LABEL	3/10/2016	AC Calibration Date
FRAMEWORKVERSION	QUANT	7,05	Framework Version
INSTRUMENTVERSION	LABEL	4.21	Instrument Version
CURVE1	TABLE
	Pt	T	Vf	Im	Vu	Sig	Ach	IERange	Over	Temp
	#	s	V vs. Ref.	A	V	V	V	#	bits	deg C
	0	0,014283	9,97968E-002	-6,95027E-006	0,00000E+000	1,00006E-001	0,00000E+000	7	...........	-32768,00
	15	0,228533	1,14811E-001	-6,24153E-006	0,00000E+000	1,14995E-001	0,00000E+000	7	...........	-32768,00
	30	0,442783	1,29826E-001	-5,87429E-006	0,00000E+000	1,29996E-001	0,00000E+000	7	...........	-32768,00
	45	0,657033	1,44840E-001	-5,59894E-006	0,00000E+000	1,44997E-001	0,00000E+000	7	...........	-32768,00
	60	0,871283	1,59754E-001	-5,37439E-006	0,00000E+000	1,59999E-001	0,00000E+000	7	...........	-32768,00
	75	1,08553	1,74869E-001	-5,21867E-006	0,00000E+000	1,75000E-001	0,00000E+000	7	...........	-32768,00
	90	1,29978	1,89783E-001	-5,05961E-006	0,00000E+000	1,90001E-001	0,00000E+000	7	...........	-32768,00
	105	1,51403	2,04798E-001	-4,93999E-006	0,00000E+000	2,05002E-001	0,00000E+000	7	...........	-32768,00
	120	1,72828	2,19712E-001	-4,83306E-006	0,00000E+000	2,20003E-001	0,00000E+000	7	...........	-32768,00
	135	1,94253	2,34827E-001	-4,71176E-006	0,00000E+000	2,35005E-001	0,00000E+000	7	...........	-32768,00
	150	2,15678	2,49741E-001	-4,62521E-006	0,00000E+000	2,50006E-001	0,00000E+000	7	...........	-32768,00
	165	2,37103	2,64755E-001	-4,49422E-006	0,00000E+000	2,64994E-001	0,00000E+000	7	...........	-32768,00
	180	2,58528	2,79770E-001	-4,34051E-006	0,00000E+000	2,79996E-001	0,00000E+000	7	...........	-32768,00
	195	2,79953	2,94784E-001	-4,20718E-006	0,00000E+000	2,94997E-001	0,00000E+000	7	...........	-32768,00
	210	3,01378	3,09799E-001	-3,97060E-006	0,00000E+000	3,09998E-001	0,00000E+000	7	...........	-32768,00
	225	3,22803	3,24813E-001	-3,71229E-006	0,00000E+000	3,24999E-001	0,00000E+000	7	...........	-32768,00
	240	3,44228	3,39928E-001	-3,29359E-006	0,00000E+000	3,40000E-001	0,00000E+000	7	...........	-32768,00
	255	3,65653	3,54742E-001	-2,74023E-006	0,00000E+000	3,55002E-001	0,00000E+000	7	...........	-32768,00
	270	3,87078	3,69956E-001	-1,97000E-006	0,00000E+000	3,70003E-001	0,00000E+000	7	...........	-32768,00
	285	4,08503	3,84871E-001	-1,00729E-006	0,00000E+000	3,85004E-001	0,00000E+000	7	...........	-32768,00
	300	4,29928	3,99885E-001	1,32517E-007	0,00000E+000	4,00005E-001	0,00000E+000	7	...........	-32768,00
	315	4,51353	4,14799E-001	1,39764E-006	0,00000E+000	4,14994E-001	0,00000E+000	7	...........	-32768,00
	330	4,72778	4,29814E-001	2,87361E-006	0,00000E+000	4,29995E-001	0,00000E+000	7	...........	-32768,00
	345	4,94203	4,44928E-001	4,76193E-006	0,00000E+000	4,44996E-001	0,00000E+000	7	...........	-32768,00
	360	5,15628	4,59843E-001	7,50001E-006	0,00000E+000	4,59998E-001	0,00000E+000	7	...........	-32768,00
	375	5,37053	4,74857E-001	1,13905E-005	0,00000E+000	4,74999E-001	0,00000E+000	8	...........	-32768,00
	390	5,58478	4,89872E-001	1,68392E-005	0,00000E+000	4,90000E-001	0,00000E+000	8	...........	-32768,00
	405	5,79903	5,04986E-001	2,41153E-005	0,00000E+000	5,05001E-001	0,00000E+000	8	...........	-32768,00
	420	6,01328	5,19901E-001	3,32957E-005	0,00000E+000	5,20002E-001	0,00000E+000	8	...........	-32768,00
	435	6,22753	5,34815E-001	4,45172E-005	0,00000E+000	5,35004E-001	0,00000E+000	8	...........	-32768,00
	450	6,44178	5,49829E-001	5,78768E-005	0,00000E+000	5,50005E-001	0,00000E+000	8	...........	-32768,00
	465	6,65603	5,64844E-001	7,33544E-005	0,00000E+000	5,64994E-001	0,00000E+000	8	...........	-32768,00
	480	6,87028	5,79858E-001	9,09142E-005	0,00000E+000	5,79995E-001	0,00000E+000	9	...........	-32768,00
	495	7,08453	5,94872E-001	1,09774E-004	0,00000E+000	5,94996E-001	0,00000E+000	9	...........	-32768,00
	510	7,29878	6,09887E-001	1,24996E-004	0,00000E+000	6,09997E-001	0,00000E+000	9	...........	-32768,00
	525	7,51303	6,24801E-001	1,32006E-004	0,00000E+000	6,24998E-001	0,00000E+000	9	...........	-32768,00
	540	7,72728	6,39916E-001	1,23460E-004	0,00000E+000	6,40000E-001	0,00000E+000	9	...........	-32768,00
	555	7,94153	6,54930E-001	7,15104E-005	0,00000E+000	6,55001E-001	0,00000E+000	8	...........	-32768,00
	570	8,15578	6,69845E-001	3,96498E-005	0,00000E+000	6,70002E-001	0,00000E+000	8	...........	-32768,00
	585	8,37003	6,84859E-001	3,07033E-005	0,00000E+000	6,85003E-001	0,00000E+000	8	...........	-32768,00
	600	8,58428	6,99973E-001	2,60530E-005	0,00000E+000	7,00004E-001	0,00000E+000	8	...........	-32768,00
	615	8,79853	7,14788E-001	2,32133E-005	0,00000E+000	7,14993E-001	0,00000E+000	8	...........	-32768,00
	630	9,01278	7,30002E-001	2,13860E-005	0,00000E+000	7,29994E-001	0,00000E+000	8	...........	-32768,00
	645	9,22703	7,44917E-001	1,98826E-005	0,00000E+000	7,44995E-001	0,00000E+000	8	...........	-32768,00
	660	9,44128	7,59931E-001	1,88904E-005	0,00000E+000	7,59997E-001	0,00000E+000	8	...........	-32768,00
	675	9,6555	7,74845E-001	1,83927E-005	0,00000E+000	7,74998E-001	0,00000E+000	8	...........	-32768,00
	690	9,8698	7,89960E-001	1,76878E-005	0,00000E+000	7,89999E-001	0,00000E+000	8	...........	-32768,00
	705	10,084	7,94965E-001	1,61777E-005	0,00000E+000	7,94999E-001	0,00000E+000	8	...........	-32768,00
	720	10,2983	7,79850E-001	1,34718E-005	0,00000E+000	7,79998E-001	0,00000E+000	8	...........	-32768,00
[...]
	900	12,8693	5,99777E-001	2,40512E-006	0,00000E+000	5,99996E-001	0,00000E+000	7	...........	-32768,00
	915	13,0835	5,84863E-001	1,89820E-006	0,00000E+000	5,84995E-001	0,00000E+000	7	...........	-32768,00
	930	13,2978	5,69848E-001	1,37057E-006	0,00000E+000	5,69994E-001	0,00000E+000	7	...........	-32768,00
	945	13,512	5,54834E-001	8,92724E-007	0,00000E+000	5,55005E-001	0,00000E+000	7	...........	-32768,00
	960	13,7263	5,39820E-001	4,96080E-007	0,00000E+000	5,40004E-001	0,00000E+000	7	...........	-32768,00
	975	13,9405	5,24905E-001	2,04361E-007	0,00000E+000	5,25003E-001	0,00000E+000	7	...........	-32768,00
	990	14,1548	5,09791E-001	-5,56135E-008	0,00000E+000	5,10002E-001	0,00000E+000	7	...........	-32768,00
	1005	14,369	4,94876E-001	-3,12914E-007	0,00000E+000	4,95000E-001	0,00000E+000	7	...........	-32768,00
	1020	14,5833	4,79862E-001	-6,18334E-007	0,00000E+000	4,79999E-001	0,00000E+000	7	...........	-32768,00
	1035	14,7975	4,64747E-001	-9,98605E-007	0,00000E+000	4,64998E-001	0,00000E+000	7	...........	-32768,00
	1050	15,0118	4,49933E-001	-1,57469E-006	0,00000E+000	4,49997E-001	0,00000E+000	7	...........	-32768,00
	1065	15,226	4,34919E-001	-4,82303E-006	0,00000E+000	4,34996E-001	0,00000E+000	7	...........	-32768,00
	1080	15,4403	4,19804E-001	-1,61004E-005	0,00000E+000	4,19994E-001	0,00000E+000	8	...........	-32768,00
	1095	15,6545	4,04790E-001	-3,27908E-005	0,00000E+000	4,04993E-001	0,00000E+000	8	...........	-32768,00
	1110	15,8688	3,89876E-001	-4,63174E-005	0,00000E+000	3,90004E-001	0,00000E+000	8	...........	-32768,00
	1125	16,083	3,74861E-001	-5,27717E-005	0,00000E+000	3,75003E-001	0,00000E+000	8	...........	-32768,00
	1140	16,2973	3,59947E-001	-5,28886E-005	0,00000E+000	3,60002E-001	0,00000E+000	8	...........	-32768,00
	1155	16,5115	3,44832E-001	-4,94711E-005	0,00000E+000	3,45001E-001	0,00000E+000	8	...........	-32768,00
	1170	16,7258	3,29918E-001	-4,50179E-005	0,00000E+000	3,30000E-001	0,00000E+000	8	...........	-32768,00
	1185	16,94	3,14703E-001	-4,06582E-005	0,00000E+000	3,14998E-001	0,00000E+000	8	...........	-32768,00
	1200	17,1543	2,99789E-001	-3,67328E-005	0,00000E+000	2,99997E-001	0,00000E+000	8	...........	-32768,00
	1215	17,3685	2,84775E-001	-3,33153E-005	0,00000E+000	2,84996E-001	0,00000E+000	8	...........	-32768,00
	1230	17,5828	2,69860E-001	-3,03988E-005	0,00000E+000	2,69995E-001	0,00000E+000	8	...........	-32768,00
	1245	17,797	2,54846E-001	-2,79701E-005	0,00000E+000	2,54994E-001	0,00000E+000	8	...........	-32768,00
	1260	18,0113	2,39731E-001	-2,58988E-005	0,00000E+000	2,40005E-001	0,00000E+000	8	...........	-32768,00
	1275	18,2255	2,24817E-001	-2,41984E-005	0,00000E+000	2,25004E-001	0,00000E+000	8	...........	-32768,00
	1290	18,4398	2,09803E-001	-2,27585E-005	0,00000E+000	2,10003E-001	0,00000E+000	8	...........	-32768,00
	1305	18,654	1,94788E-001	-2,15058E-005	0,00000E+000	1,95001E-001	0,00000E+000	8	...........	-32768,00
	1320	18,8683	1,79874E-001	-2,04568E-005	0,00000E+000	1,80000E-001	0,00000E+000	8	...........	-32768,00
	1335	19,0825	1,64859E-001	-1,95581E-005	0,00000E+000	1,64999E-001	0,00000E+000	8	...........	-32768,00
	1350	19,2968	1,49845E-001	-1,87998E-005	0,00000E+000	1,49998E-001	0,00000E+000	8	...........	-32768,00
	1365	19,511	1,34730E-001	-1,81517E-005	0,00000E+000	1,34997E-001	0,00000E+000	8	...........	-32768,00
	1380	19,7253	1,19816E-001	-1,76004E-005	0,00000E+000	1,19995E-001	0,00000E+000	8	...........	-32768,00
	1395	19,9395	1,04802E-001	-1,71260E-005	0,00000E+000	1,04994E-001	0,00000E+000	8	...........	-32768,00
	1400	20,011	9,97968E-002	-1,69924E-005	0,00000E+000	1,00006E-001	0,00000E+000	8	...........	-32768,00