Folder: Date_latest/HOPG_cv/3mM (part 3)

File: AgNO3_HOPG_3mM_70mv_1_cv.DTA
EXPLAIN
TAG	CV
TITLE	LABEL	Cyclic Voltammetry	Test &Identifier
DATE	LABEL	30/4/2022	Date
TIME	LABEL	16:02:55	Time
NOTES	NOTES	2	&Notes...
	30/04/22 , 5mM  AgNO3

PSTAT	PSTAT	IFC1000-09004	Potentiostat
VINIT	POTEN	1,00000E-001	F	Initial &E (V)
VLIMIT1	POTEN	1,00000E-001	F	Scan Limit &1 (V)
VLIMIT2	POTEN	8,00000E-001	F	Scan Limit &2 (V)
VFINAL	POTEN	1,00000E-001	F	Final &E (V)
SCANRATE	QUANT	7,00115E+001	&Scan Rate (mV/s)
STEPSIZE	QUANT	1,00000E+000	St&ep Size (mV)
CYCLES	IQUANT	1	C&ycles (#)
IMODE	SELECTOR	0	I/E Range &Mode
IRANGE	QUANT	1,00000E-005	&Max Current (mA)
AREA	QUANT	1,00000E+000	Electrode &Area (cm^2)
ELECTRODETYPE	SELECTOR	0	Electrode Type
STRIPPING	TOGGLE	F	Used for Stripping
POLARITY	TOGGLE	F	Signal Polarity
CONDIT	TWOPARAM	F	1,50000E+001	0,00000E+000	Conditionin&g	Time(s)	E(V)
DELAY	TWOPARAM	F	3,00000E+001	0,00000E+000	Init. De&lay	Time(s)	Stab.(mV/s)
EQDELAY	QUANT	1,00000E+001	Equil. &Time (s)
IRCOMP	SELECTOR	0	IRCom&p
PFCOR	QUANT	5,00000E+001	PF Corr. (ohm)
SAMPLINGMODE	SELECTOR	1	Sampling &Mode
EOC	QUANT	0	Open Circuit (V)
PSTATMODEL	IQUANT	48	Pstat Model
PSTATSECTION	LABEL	IFC1000-09004	Pstat Section
PSTATSERIALNO	LABEL	09004	Pstat Serial Number
CTRLMODE	IQUANT	1	Control Mode
ELECTROMETER	IQUANT	0	RE=0 or CS=1
IESTAB	IQUANT	2	I/E Stability
CASPEED	IQUANT	4	Control Amp Speed
CONVENTION	IQUANT	1	Current Convention
ICHRANGE	IQUANT	2	Ich Range
ICHRANGEMODE	TOGGLE	F	Ich Auto Range
ICHOFFSETENABLE	TOGGLE	F	Ich Offset Enable
ICHOFFSET	QUANT	0	Ich Offset (V)
ICHFILTER	IQUANT	3	Ich Filter
VCHRANGE	IQUANT	2	Vch Range
VCHRANGEMODE	TOGGLE	F	Vch Auto Range
VCHOFFSETENABLE	TOGGLE	F	Vch Offset Enable
VCHOFFSET	QUANT	0	Vch Offset (V)
VCHFILTER	IQUANT	3	Vch Filter
IERANGELOWERLIMIT	IQUANT	4	I/E Range Lower Limit
IERANGEMODE	TOGGLE	T	I/E AutoRange
IERANGE	IQUANT	5	I/E Range
ACHSELECT	IQUANT	0	Ach Select
ACHRANGE	IQUANT	2	Ach Range
ACHOFFSETENABLE	TOGGLE	F	Ach Offset Enable
ACHOFFSET	QUANT	0	Ach Offset (V)
ACHFILTER	IQUANT	1	Ach Filter
CABLEID	IQUANT	14	Cable ID
DCCALDATE	LABEL	3/18/2022	DC Calibration Date
ACCALDATE	LABEL	3/10/2016	AC Calibration Date
FRAMEWORKVERSION	QUANT	7,05	Framework Version
INSTRUMENTVERSION	LABEL	4.21	Instrument Version
CURVE1	TABLE
	Pt	T	Vf	Im	Vu	Sig	Ach	IERange	Over	Temp
	#	s	V vs. Ref.	A	V	V	V	#	bits	deg C
	0	0,014283	9,98384E-002	-1,09478E-005	0,00000E+000	1,00006E-001	0,00000E+000	7	....ih..i..	-32768,00
	15	0,228533	1,14782E-001	-3,27273E-005	0,00000E+000	1,14995E-001	0,00000E+000	8	...........	-32768,00
	30	0,442783	1,29812E-001	-3,11820E-005	0,00000E+000	1,29996E-001	0,00000E+000	8	...........	-32768,00
	45	0,657033	1,44804E-001	-2,99584E-005	0,00000E+000	1,44997E-001	0,00000E+000	8	...........	-32768,00
	60	0,871283	1,59783E-001	-2,88887E-005	0,00000E+000	1,59986E-001	0,00000E+000	8	...........	-32768,00
	75	1,08553	1,74787E-001	-2,79816E-005	0,00000E+000	1,74987E-001	0,00000E+000	8	...........	-32768,00
	90	1,29978	1,89802E-001	-2,71934E-005	0,00000E+000	1,89988E-001	0,00000E+000	8	...........	-32768,00
	105	1,51403	2,04790E-001	-2,64175E-005	0,00000E+000	2,04977E-001	0,00000E+000	8	...........	-32768,00
	120	1,72828	2,19803E-001	-2,57627E-005	0,00000E+000	2,19978E-001	0,00000E+000	8	...........	-32768,00
	135	1,94253	2,34814E-001	-2,51058E-005	0,00000E+000	2,34980E-001	0,00000E+000	8	...........	-32768,00
	150	2,15678	2,49798E-001	-2,44986E-005	0,00000E+000	2,49981E-001	0,00000E+000	8	...........	-32768,00
	165	2,37103	2,64788E-001	-2,38740E-005	0,00000E+000	2,64969E-001	0,00000E+000	8	...........	-32768,00
	180	2,58528	2,79797E-001	-2,32066E-005	0,00000E+000	2,79971E-001	0,00000E+000	8	...........	-32768,00
	195	2,79953	2,94774E-001	-2,24463E-005	0,00000E+000	2,94972E-001	0,00000E+000	8	...........	-32768,00
	210	3,01378	3,09803E-001	-2,15157E-005	0,00000E+000	3,09961E-001	0,00000E+000	8	...........	-32768,00
	225	3,22803	3,24800E-001	-2,03420E-005	0,00000E+000	3,24962E-001	0,00000E+000	8	...........	-32768,00
	240	3,44228	3,39805E-001	-1,86006E-005	0,00000E+000	3,39963E-001	0,00000E+000	8	...........	-32768,00
	255	3,65653	3,54779E-001	-1,55019E-005	0,00000E+000	3,54952E-001	0,00000E+000	8	...........	-32768,00
	270	3,87078	3,69796E-001	-1,21256E-005	0,00000E+000	3,69953E-001	0,00000E+000	8	...........	-32768,00
	285	4,08503	3,84822E-001	-7,59556E-006	0,00000E+000	3,84954E-001	0,00000E+000	7	...........	-32768,00
	300	4,29928	3,99811E-001	-1,43742E-006	0,00000E+000	3,99955E-001	0,00000E+000	7	...........	-32768,00
	315	4,51353	4,14796E-001	6,34194E-006	0,00000E+000	4,14944E-001	0,00000E+000	7	...........	-32768,00
	330	4,72778	4,29816E-001	1,55811E-005	0,00000E+000	4,29945E-001	0,00000E+000	8	...........	-32768,00
	345	4,94203	4,44794E-001	2,63487E-005	0,00000E+000	4,44946E-001	0,00000E+000	8	...........	-32768,00
	360	5,15628	4,59765E-001	4,04199E-005	0,00000E+000	4,59935E-001	0,00000E+000	8	...........	-32768,00
	375	5,37053	4,74804E-001	6,00553E-005	0,00000E+000	4,74936E-001	0,00000E+000	8	...........	-32768,00
	390	5,58478	4,89794E-001	8,68664E-005	0,00000E+000	4,89937E-001	0,00000E+000	8	...........	-32768,00
	405	5,79903	5,04802E-001	1,21722E-004	0,00000E+000	5,04939E-001	0,00000E+000	9	...........	-32768,00
	420	6,01328	5,19817E-001	1,65032E-004	0,00000E+000	5,19927E-001	0,00000E+000	9	...........	-32768,00
	435	6,22753	5,34819E-001	2,16550E-004	0,00000E+000	5,34929E-001	0,00000E+000	9	...........	-32768,00
	450	6,44178	5,49808E-001	2,75467E-004	0,00000E+000	5,49930E-001	0,00000E+000	9	...........	-32768,00
	465	6,65603	5,64817E-001	3,41017E-004	0,00000E+000	5,64918E-001	0,00000E+000	9	...........	-32768,00
	480	6,87028	5,79823E-001	4,12738E-004	0,00000E+000	5,79920E-001	0,00000E+000	9	...........	-32768,00
	495	7,08453	5,94813E-001	4,85731E-004	0,00000E+000	5,94921E-001	0,00000E+000	9	...........	-32768,00
	510	7,29878	6,09813E-001	5,47887E-004	0,00000E+000	6,09910E-001	0,00000E+000	9	...........	-32768,00
	525	7,51303	6,24798E-001	5,67166E-004	0,00000E+000	6,24911E-001	0,00000E+000	9	...........	-32768,00
	540	7,72728	6,39837E-001	5,00928E-004	0,00000E+000	6,39912E-001	0,00000E+000	9	...........	-32768,00
	555	7,94153	6,54838E-001	2,26828E-004	0,00000E+000	6,54913E-001	0,00000E+000	9	...........	-32768,00
	570	8,15578	6,69829E-001	1,24089E-004	0,00000E+000	6,69902E-001	0,00000E+000	9	...........	-32768,00
	585	8,37003	6,84837E-001	1,02733E-004	0,00000E+000	6,84903E-001	0,00000E+000	9	...........	-32768,00
	600	8,58428	6,99841E-001	9,14838E-005	0,00000E+000	6,99904E-001	0,00000E+000	9	...........	-32768,00
	615	8,79853	7,14813E-001	8,45449E-005	0,00000E+000	7,14893E-001	0,00000E+000	9	...........	-32768,00
	630	9,01278	7,29815E-001	7,98112E-005	0,00000E+000	7,29894E-001	0,00000E+000	8	...........	-32768,00
	645	9,22703	7,44838E-001	7,65154E-005	0,00000E+000	7,44895E-001	0,00000E+000	8	...........	-32768,00
	660	9,44128	7,59835E-001	7,38850E-005	0,00000E+000	7,59884E-001	0,00000E+000	8	...........	-32768,00
	675	9,6555	7,74850E-001	7,19809E-005	0,00000E+000	7,74885E-001	0,00000E+000	8	...........	-32768,00
	690	9,8698	7,89852E-001	7,03284E-005	0,00000E+000	7,89887E-001	0,00000E+000	8	...........	-32768,00
	705	10,084	7,94855E-001	6,58675E-005	0,00000E+000	7,94887E-001	0,00000E+000	8	...........	-32768,00
	720	10,2983	7,79830E-001	5,70854E-005	0,00000E+000	7,79886E-001	0,00000E+000	8	...........	-32768,00
[...]
	900	12,8693	5,99807E-001	1,67329E-005	0,00000E+000	5,99921E-001	0,00000E+000	8	...........	-32768,00
	915	13,0835	5,84811E-001	1,48884E-005	0,00000E+000	5,84920E-001	0,00000E+000	8	...........	-32768,00
	930	13,2978	5,69803E-001	1,30755E-005	0,00000E+000	5,69919E-001	0,00000E+000	8	...........	-32768,00
	945	13,512	5,54819E-001	1,13108E-005	0,00000E+000	5,54930E-001	0,00000E+000	8	...........	-32768,00
	960	13,7263	5,39810E-001	9,67336E-006	0,00000E+000	5,39929E-001	0,00000E+000	8	...........	-32768,00
	975	13,9405	5,24788E-001	8,25052E-006	0,00000E+000	5,24928E-001	0,00000E+000	8	...........	-32768,00
	990	14,1548	5,09776E-001	6,98574E-006	0,00000E+000	5,09927E-001	0,00000E+000	7	...........	-32768,00
	1005	14,369	4,94782E-001	5,73052E-006	0,00000E+000	4,94938E-001	0,00000E+000	7	...........	-32768,00
	1020	14,5833	4,79800E-001	4,39826E-006	0,00000E+000	4,79937E-001	0,00000E+000	7	...........	-32768,00
	1035	14,7975	4,64795E-001	2,86838E-006	0,00000E+000	4,64935E-001	0,00000E+000	7	...........	-32768,00
	1050	15,0118	4,49815E-001	9,89761E-008	0,00000E+000	4,49947E-001	0,00000E+000	7	...........	-32768,00
	1065	15,226	4,34784E-001	-1,37789E-005	0,00000E+000	4,34946E-001	0,00000E+000	8	...........	-32768,00
	1080	15,4403	4,19781E-001	-5,78402E-005	0,00000E+000	4,19944E-001	0,00000E+000	8	...........	-32768,00
	1095	15,6545	4,04799E-001	-1,27117E-004	0,00000E+000	4,04943E-001	0,00000E+000	9	...........	-32768,00
	1110	15,8688	3,89809E-001	-1,87975E-004	0,00000E+000	3,89954E-001	0,00000E+000	9	...........	-32768,00
	1125	16,083	3,74814E-001	-2,20138E-004	0,00000E+000	3,74953E-001	0,00000E+000	9	...........	-32768,00
	1140	16,2973	3,59814E-001	-2,26118E-004	0,00000E+000	3,59952E-001	0,00000E+000	9	...........	-32768,00
	1155	16,5115	3,44812E-001	-2,15553E-004	0,00000E+000	3,44963E-001	0,00000E+000	9	...........	-32768,00
	1170	16,7258	3,29796E-001	-1,97885E-004	0,00000E+000	3,29962E-001	0,00000E+000	9	...........	-32768,00
	1185	16,94	3,14795E-001	-1,78771E-004	0,00000E+000	3,14961E-001	0,00000E+000	9	...........	-32768,00
	1200	17,1543	2,99795E-001	-1,61340E-004	0,00000E+000	2,99972E-001	0,00000E+000	9	...........	-32768,00
	1215	17,3685	2,84805E-001	-1,46574E-004	0,00000E+000	2,84971E-001	0,00000E+000	9	...........	-32768,00
	1230	17,5828	2,69806E-001	-1,34275E-004	0,00000E+000	2,69970E-001	0,00000E+000	9	...........	-32768,00
	1245	17,797	2,54780E-001	-1,24153E-004	0,00000E+000	2,54969E-001	0,00000E+000	9	...........	-32768,00
	1260	18,0113	2,39782E-001	-1,15756E-004	0,00000E+000	2,39980E-001	0,00000E+000	9	...........	-32768,00
	1275	18,2255	2,24785E-001	-1,08841E-004	0,00000E+000	2,24979E-001	0,00000E+000	9	...........	-32768,00
	1290	18,4398	2,09789E-001	-1,03166E-004	0,00000E+000	2,09978E-001	0,00000E+000	9	...........	-32768,00
	1305	18,654	1,94801E-001	-9,86686E-005	0,00000E+000	1,94989E-001	0,00000E+000	9	...........	-32768,00
	1320	18,8683	1,79812E-001	-9,48484E-005	0,00000E+000	1,79988E-001	0,00000E+000	9	...........	-32768,00
	1335	19,0825	1,64771E-001	-9,15533E-005	0,00000E+000	1,64986E-001	0,00000E+000	9	...........	-32768,00
	1350	19,2968	1,49799E-001	-8,86285E-005	0,00000E+000	1,49998E-001	0,00000E+000	9	...........	-32768,00
	1365	19,511	1,34802E-001	-8,58268E-005	0,00000E+000	1,34997E-001	0,00000E+000	9	...........	-32768,00
	1380	19,7253	1,19801E-001	-8,32298E-005	0,00000E+000	1,19995E-001	0,00000E+000	9	...........	-32768,00
	1395	19,9395	1,04798E-001	-8,07689E-005	0,00000E+000	1,04994E-001	0,00000E+000	8	...........	-32768,00
	1400	20,011	9,97980E-002	-7,99088E-005	0,00000E+000	1,00006E-001	0,00000E+000	8	...........	-32768,00

File: AgNO3_HOPG_3mM_80mv_1_cv.DTA
EXPLAIN
TAG	CV
TITLE	LABEL	Cyclic Voltammetry	Test &Identifier
DATE	LABEL	30/4/2022	Date
TIME	LABEL	16:01:51	Time
NOTES	NOTES	2	&Notes...
	30/04/22 , 5mM  AgNO3

PSTAT	PSTAT	IFC1000-09004	Potentiostat
VINIT	POTEN	1,00000E-001	F	Initial &E (V)
VLIMIT1	POTEN	1,00000E-001	F	Scan Limit &1 (V)
VLIMIT2	POTEN	8,00000E-001	F	Scan Limit &2 (V)
VFINAL	POTEN	1,00000E-001	F	Final &E (V)
SCANRATE	QUANT	7,99998E+001	&Scan Rate (mV/s)
STEPSIZE	QUANT	1,00000E+000	St&ep Size (mV)
CYCLES	IQUANT	1	C&ycles (#)
IMODE	SELECTOR	0	I/E Range &Mode
IRANGE	QUANT	1,00000E-005	&Max Current (mA)
AREA	QUANT	1,00000E+000	Electrode &Area (cm^2)
ELECTRODETYPE	SELECTOR	0	Electrode Type
STRIPPING	TOGGLE	F	Used for Stripping
POLARITY	TOGGLE	F	Signal Polarity
CONDIT	TWOPARAM	F	1,50000E+001	0,00000E+000	Conditionin&g	Time(s)	E(V)
DELAY	TWOPARAM	F	3,00000E+001	0,00000E+000	Init. De&lay	Time(s)	Stab.(mV/s)
EQDELAY	QUANT	1,00000E+001	Equil. &Time (s)
IRCOMP	SELECTOR	0	IRCom&p
PFCOR	QUANT	5,00000E+001	PF Corr. (ohm)
SAMPLINGMODE	SELECTOR	1	Sampling &Mode
EOC	QUANT	0	Open Circuit (V)
PSTATMODEL	IQUANT	48	Pstat Model
PSTATSECTION	LABEL	IFC1000-09004	Pstat Section
PSTATSERIALNO	LABEL	09004	Pstat Serial Number
CTRLMODE	IQUANT	1	Control Mode
ELECTROMETER	IQUANT	0	RE=0 or CS=1
IESTAB	IQUANT	2	I/E Stability
CASPEED	IQUANT	4	Control Amp Speed
CONVENTION	IQUANT	1	Current Convention
ICHRANGE	IQUANT	2	Ich Range
ICHRANGEMODE	TOGGLE	F	Ich Auto Range
ICHOFFSETENABLE	TOGGLE	F	Ich Offset Enable
ICHOFFSET	QUANT	0	Ich Offset (V)
ICHFILTER	IQUANT	3	Ich Filter
VCHRANGE	IQUANT	2	Vch Range
VCHRANGEMODE	TOGGLE	F	Vch Auto Range
VCHOFFSETENABLE	TOGGLE	F	Vch Offset Enable
VCHOFFSET	QUANT	0	Vch Offset (V)
VCHFILTER	IQUANT	3	Vch Filter
IERANGELOWERLIMIT	IQUANT	4	I/E Range Lower Limit
IERANGEMODE	TOGGLE	T	I/E AutoRange
IERANGE	IQUANT	5	I/E Range
ACHSELECT	IQUANT	0	Ach Select
ACHRANGE	IQUANT	2	Ach Range
ACHOFFSETENABLE	TOGGLE	F	Ach Offset Enable
ACHOFFSET	QUANT	0	Ach Offset (V)
ACHFILTER	IQUANT	1	Ach Filter
CABLEID	IQUANT	14	Cable ID
DCCALDATE	LABEL	3/18/2022	DC Calibration Date
ACCALDATE	LABEL	3/10/2016	AC Calibration Date
FRAMEWORKVERSION	QUANT	7,05	Framework Version
INSTRUMENTVERSION	LABEL	4.21	Instrument Version
CURVE1	TABLE
	Pt	T	Vf	Im	Vu	Sig	Ach	IERange	Over	Temp
	#	s	V vs. Ref.	A	V	V	V	#	bits	deg C
	0	0,0125	9,97922E-002	-3,69820E-005	0,00000E+000	1,00006E-001	0,00000E+000	8	...........	-32768,00
	15	0,2	1,14787E-001	-3,41114E-005	0,00000E+000	1,14995E-001	0,00000E+000	8	...........	-32768,00
	30	0,3875	1,29806E-001	-3,25749E-005	0,00000E+000	1,29996E-001	0,00000E+000	8	...........	-32768,00
	45	0,575	1,44802E-001	-3,13464E-005	0,00000E+000	1,44997E-001	0,00000E+000	8	...........	-32768,00
	60	0,7625	1,59798E-001	-3,03392E-005	0,00000E+000	1,59999E-001	0,00000E+000	8	...........	-32768,00
	75	0,95	1,74799E-001	-2,94731E-005	0,00000E+000	1,75000E-001	0,00000E+000	8	...........	-32768,00
	90	1,1375	1,89805E-001	-2,87167E-005	0,00000E+000	1,90001E-001	0,00000E+000	8	...........	-32768,00
	105	1,325	2,04793E-001	-2,79724E-005	0,00000E+000	2,05002E-001	0,00000E+000	8	...........	-32768,00
	120	1,5125	2,19809E-001	-2,73271E-005	0,00000E+000	2,20003E-001	0,00000E+000	8	...........	-32768,00
	135	1,7	2,34834E-001	-2,67483E-005	0,00000E+000	2,35005E-001	0,00000E+000	8	...........	-32768,00
	150	1,8875	2,49823E-001	-2,61180E-005	0,00000E+000	2,50006E-001	0,00000E+000	8	...........	-32768,00
	165	2,075	2,64821E-001	-2,54592E-005	0,00000E+000	2,64994E-001	0,00000E+000	8	...........	-32768,00
	180	2,2625	2,79828E-001	-2,48182E-005	0,00000E+000	2,79996E-001	0,00000E+000	8	...........	-32768,00
	195	2,45	2,94818E-001	-2,40742E-005	0,00000E+000	2,94997E-001	0,00000E+000	8	...........	-32768,00
	210	2,6375	3,09834E-001	-2,31568E-005	0,00000E+000	3,09998E-001	0,00000E+000	8	...........	-32768,00
	225	2,825	3,24844E-001	-2,19374E-005	0,00000E+000	3,24999E-001	0,00000E+000	8	...........	-32768,00
	240	3,0125	3,39841E-001	-2,02356E-005	0,00000E+000	3,40000E-001	0,00000E+000	8	...........	-32768,00
	255	3,2	3,54839E-001	-1,70420E-005	0,00000E+000	3,55002E-001	0,00000E+000	8	...........	-32768,00
	270	3,3875	3,69848E-001	-1,35238E-005	0,00000E+000	3,70003E-001	0,00000E+000	8	...........	-32768,00
	285	3,575	3,84859E-001	-8,76162E-006	0,00000E+000	3,85004E-001	0,00000E+000	8	...........	-32768,00
	300	3,7625	3,99862E-001	-2,32879E-006	0,00000E+000	4,00005E-001	0,00000E+000	8	...........	-32768,00
	315	3,95	4,14839E-001	5,98839E-006	0,00000E+000	4,14994E-001	0,00000E+000	8	...........	-32768,00
	330	4,1375	4,29853E-001	1,60078E-005	0,00000E+000	4,29995E-001	0,00000E+000	8	...........	-32768,00
	345	4,325	4,44836E-001	2,78238E-005	0,00000E+000	4,44996E-001	0,00000E+000	8	...........	-32768,00
	360	4,5125	4,59849E-001	4,29968E-005	0,00000E+000	4,59998E-001	0,00000E+000	8	...........	-32768,00
	375	4,7	4,74873E-001	6,40840E-005	0,00000E+000	4,74999E-001	0,00000E+000	8	...........	-32768,00
	390	4,8875	4,89865E-001	9,27868E-005	0,00000E+000	4,90000E-001	0,00000E+000	9	...........	-32768,00
	405	5,075	5,04863E-001	1,30155E-004	0,00000E+000	5,05001E-001	0,00000E+000	9	...........	-32768,00
	420	5,2625	5,19887E-001	1,76335E-004	0,00000E+000	5,20002E-001	0,00000E+000	9	...........	-32768,00
	435	5,45	5,34889E-001	2,31243E-004	0,00000E+000	5,35004E-001	0,00000E+000	9	...........	-32768,00
	450	5,6375	5,49877E-001	2,93831E-004	0,00000E+000	5,50005E-001	0,00000E+000	9	...........	-32768,00
	465	5,825	5,64899E-001	3,63238E-004	0,00000E+000	5,65006E-001	0,00000E+000	9	...........	-32768,00
	480	6,0125	5,79900E-001	4,38533E-004	0,00000E+000	5,79995E-001	0,00000E+000	9	...........	-32768,00
	495	6,2	5,94894E-001	5,18709E-004	0,00000E+000	5,94996E-001	0,00000E+000	9	...........	-32768,00
	510	6,3875	6,09881E-001	5,98377E-004	0,00000E+000	6,09997E-001	0,00000E+000	9	...........	-32768,00
	525	6,575	6,24886E-001	6,61308E-004	0,00000E+000	6,24998E-001	0,00000E+000	9	...........	-32768,00
	540	6,7625	6,39908E-001	6,78122E-004	0,00000E+000	6,40000E-001	0,00000E+000	9	...........	-32768,00
	555	6,95	6,54931E-001	6,13788E-004	0,00000E+000	6,55001E-001	0,00000E+000	9	...........	-32768,00
	570	7,1375	6,69951E-001	2,83614E-004	0,00000E+000	6,70002E-001	0,00000E+000	9	...........	-32768,00
	585	7,325	6,84944E-001	1,41904E-004	0,00000E+000	6,85003E-001	0,00000E+000	9	...........	-32768,00
	600	7,5125	6,99941E-001	1,13019E-004	0,00000E+000	7,00004E-001	0,00000E+000	9	...........	-32768,00
	615	7,7	7,14925E-001	9,82966E-005	0,00000E+000	7,15006E-001	0,00000E+000	9	...........	-32768,00
	630	7,8875	7,29928E-001	8,94083E-005	0,00000E+000	7,29994E-001	0,00000E+000	9	...........	-32768,00
	645	8,075	7,44938E-001	8,33468E-005	0,00000E+000	7,44995E-001	0,00000E+000	9	...........	-32768,00
	660	8,2625	7,59936E-001	7,87559E-005	0,00000E+000	7,59997E-001	0,00000E+000	8	...........	-32768,00
	675	8,45	7,74954E-001	7,56469E-005	0,00000E+000	7,74998E-001	0,00000E+000	8	...........	-32768,00
	690	8,6375	7,89970E-001	7,31042E-005	0,00000E+000	7,89999E-001	0,00000E+000	8	...........	-32768,00
	705	8,825	7,94971E-001	6,77073E-005	0,00000E+000	7,94999E-001	0,00000E+000	8	...........	-32768,00
	720	9,0125	7,79958E-001	5,79848E-005	0,00000E+000	7,79998E-001	0,00000E+000	8	...........	-32768,00
	735	9,2	7,64935E-001	5,08610E-005	0,00000E+000	7,64997E-001	0,00000E+000	8	...........	-32768,00
[...]
	900	11,2625	5,99866E-001	1,63461E-005	0,00000E+000	5,99996E-001	0,00000E+000	8	...........	-32768,00
	915	11,45	5,84883E-001	1,44899E-005	0,00000E+000	5,84995E-001	0,00000E+000	8	...........	-32768,00
	930	11,6375	5,69875E-001	1,26693E-005	0,00000E+000	5,69994E-001	0,00000E+000	8	...........	-32768,00
	945	11,825	5,54883E-001	1,08839E-005	0,00000E+000	5,55005E-001	0,00000E+000	8	...........	-32768,00
	960	12,0125	5,39894E-001	9,30325E-006	0,00000E+000	5,40004E-001	0,00000E+000	8	...........	-32768,00
	975	12,2	5,24850E-001	7,95317E-006	0,00000E+000	5,25003E-001	0,00000E+000	8	...........	-32768,00
	990	12,3875	5,09861E-001	6,72828E-006	0,00000E+000	5,10002E-001	0,00000E+000	8	...........	-32768,00
	1005	12,575	4,94852E-001	5,47802E-006	0,00000E+000	4,95000E-001	0,00000E+000	8	...........	-32768,00
	1020	12,7625	4,79853E-001	4,11424E-006	0,00000E+000	4,79999E-001	0,00000E+000	8	...........	-32768,00
	1035	12,95	4,64865E-001	2,50189E-006	0,00000E+000	4,64998E-001	0,00000E+000	8	...........	-32768,00
	1050	13,1375	4,49866E-001	-8,67309E-007	0,00000E+000	4,49997E-001	0,00000E+000	8	...........	-32768,00
	1065	13,325	4,34835E-001	-2,08690E-005	0,00000E+000	4,34996E-001	0,00000E+000	8	...........	-32768,00
	1080	13,5125	4,19848E-001	-8,19425E-005	0,00000E+000	4,19994E-001	0,00000E+000	8	...........	-32768,00
	1095	13,7	4,04847E-001	-1,62372E-004	0,00000E+000	4,05006E-001	0,00000E+000	9	...........	-32768,00
	1110	13,8875	3,89857E-001	-2,24192E-004	0,00000E+000	3,90004E-001	0,00000E+000	9	...........	-32768,00
	1125	14,075	3,74862E-001	-2,56409E-004	0,00000E+000	3,75003E-001	0,00000E+000	9	...........	-32768,00
	1140	14,2625	3,59860E-001	-2,62847E-004	0,00000E+000	3,60002E-001	0,00000E+000	9	...........	-32768,00
	1155	14,45	3,44833E-001	-2,51599E-004	0,00000E+000	3,45001E-001	0,00000E+000	9	...........	-32768,00
	1170	14,6375	3,29825E-001	-2,31580E-004	0,00000E+000	3,30000E-001	0,00000E+000	9	...........	-32768,00
	1185	14,825	3,14831E-001	-2,09515E-004	0,00000E+000	3,14998E-001	0,00000E+000	9	...........	-32768,00
	1200	15,0125	2,99812E-001	-1,89159E-004	0,00000E+000	2,99997E-001	0,00000E+000	9	...........	-32768,00
	1215	15,2	2,84820E-001	-1,71610E-004	0,00000E+000	2,84996E-001	0,00000E+000	9	...........	-32768,00
	1230	15,3875	2,69830E-001	-1,57024E-004	0,00000E+000	2,69995E-001	0,00000E+000	9	...........	-32768,00
	1245	15,575	2,54820E-001	-1,44911E-004	0,00000E+000	2,55006E-001	0,00000E+000	9	...........	-32768,00
	1260	15,7625	2,39811E-001	-1,34817E-004	0,00000E+000	2,40005E-001	0,00000E+000	9	...........	-32768,00
	1275	15,95	2,24808E-001	-1,26359E-004	0,00000E+000	2,25004E-001	0,00000E+000	9	...........	-32768,00
	1290	16,1375	2,09825E-001	-1,19371E-004	0,00000E+000	2,10003E-001	0,00000E+000	9	...........	-32768,00
	1305	16,325	1,94807E-001	-1,13662E-004	0,00000E+000	1,95001E-001	0,00000E+000	9	...........	-32768,00
	1320	16,5125	1,79830E-001	-1,08911E-004	0,00000E+000	1,80000E-001	0,00000E+000	9	...........	-32768,00
	1335	16,7	1,64795E-001	-1,04923E-004	0,00000E+000	1,64999E-001	0,00000E+000	9	...........	-32768,00
	1350	16,8875	1,49794E-001	-1,01386E-004	0,00000E+000	1,49998E-001	0,00000E+000	9	...........	-32768,00
	1365	17,075	1,34797E-001	-9,83609E-005	0,00000E+000	1,34997E-001	0,00000E+000	9	...........	-32768,00
	1380	17,2625	1,19799E-001	-9,52845E-005	0,00000E+000	1,19995E-001	0,00000E+000	9	...........	-32768,00
	1395	17,45	1,04795E-001	-9,24712E-005	0,00000E+000	1,04994E-001	0,00000E+000	9	...........	-32768,00
	1400	17,5125	9,97908E-002	-9,15461E-005	0,00000E+000	1,00006E-001	0,00000E+000	9	...........	-32768,00