Folder: Date_latest/HOPG_cv/3mM (part 2)

File: AgNO3_HOPG_3mM_40mv_1_cv.DTA
EXPLAIN
TAG	CV
TITLE	LABEL	Cyclic Voltammetry	Test &Identifier
DATE	LABEL	30/4/2022	Date
TIME	LABEL	16:05:55	Time
NOTES	NOTES	2	&Notes...
	30/04/22 , 5mM  AgNO3

PSTAT	PSTAT	IFC1000-09004	Potentiostat
VINIT	POTEN	1,00000E-001	F	Initial &E (V)
VLIMIT1	POTEN	1,00000E-001	F	Scan Limit &1 (V)
VLIMIT2	POTEN	8,00000E-001	F	Scan Limit &2 (V)
VFINAL	POTEN	1,00000E-001	F	Final &E (V)
SCANRATE	QUANT	3,99999E+001	&Scan Rate (mV/s)
STEPSIZE	QUANT	1,00000E+000	St&ep Size (mV)
CYCLES	IQUANT	1	C&ycles (#)
IMODE	SELECTOR	0	I/E Range &Mode
IRANGE	QUANT	1,00000E-005	&Max Current (mA)
AREA	QUANT	1,00000E+000	Electrode &Area (cm^2)
ELECTRODETYPE	SELECTOR	0	Electrode Type
STRIPPING	TOGGLE	F	Used for Stripping
POLARITY	TOGGLE	F	Signal Polarity
CONDIT	TWOPARAM	F	1,50000E+001	0,00000E+000	Conditionin&g	Time(s)	E(V)
DELAY	TWOPARAM	F	3,00000E+001	0,00000E+000	Init. De&lay	Time(s)	Stab.(mV/s)
EQDELAY	QUANT	1,00000E+001	Equil. &Time (s)
IRCOMP	SELECTOR	0	IRCom&p
PFCOR	QUANT	5,00000E+001	PF Corr. (ohm)
SAMPLINGMODE	SELECTOR	1	Sampling &Mode
EOC	QUANT	0	Open Circuit (V)
PSTATMODEL	IQUANT	48	Pstat Model
PSTATSECTION	LABEL	IFC1000-09004	Pstat Section
PSTATSERIALNO	LABEL	09004	Pstat Serial Number
CTRLMODE	IQUANT	1	Control Mode
ELECTROMETER	IQUANT	0	RE=0 or CS=1
IESTAB	IQUANT	2	I/E Stability
CASPEED	IQUANT	4	Control Amp Speed
CONVENTION	IQUANT	1	Current Convention
ICHRANGE	IQUANT	2	Ich Range
ICHRANGEMODE	TOGGLE	F	Ich Auto Range
ICHOFFSETENABLE	TOGGLE	F	Ich Offset Enable
ICHOFFSET	QUANT	0	Ich Offset (V)
ICHFILTER	IQUANT	3	Ich Filter
VCHRANGE	IQUANT	2	Vch Range
VCHRANGEMODE	TOGGLE	F	Vch Auto Range
VCHOFFSETENABLE	TOGGLE	F	Vch Offset Enable
VCHOFFSET	QUANT	0	Vch Offset (V)
VCHFILTER	IQUANT	3	Vch Filter
IERANGELOWERLIMIT	IQUANT	4	I/E Range Lower Limit
IERANGEMODE	TOGGLE	T	I/E AutoRange
IERANGE	IQUANT	5	I/E Range
ACHSELECT	IQUANT	0	Ach Select
ACHRANGE	IQUANT	2	Ach Range
ACHOFFSETENABLE	TOGGLE	F	Ach Offset Enable
ACHOFFSET	QUANT	0	Ach Offset (V)
ACHFILTER	IQUANT	1	Ach Filter
CABLEID	IQUANT	14	Cable ID
DCCALDATE	LABEL	3/18/2022	DC Calibration Date
ACCALDATE	LABEL	3/10/2016	AC Calibration Date
FRAMEWORKVERSION	QUANT	7,05	Framework Version
INSTRUMENTVERSION	LABEL	4.21	Instrument Version
CURVE1	TABLE
	Pt	T	Vf	Im	Vu	Sig	Ach	IERange	Over	Temp
	#	s	V vs. Ref.	A	V	V	V	#	bits	deg C
	0	0,025	9,98185E-002	-1,09478E-005	0,00000E+000	1,00006E-001	0,00000E+000	7	....ih..i..	-32768,00
	15	0,4	1,14771E-001	-2,95130E-005	0,00000E+000	1,14995E-001	0,00000E+000	8	...........	-32768,00
	30	0,775	1,29810E-001	-2,80250E-005	0,00000E+000	1,29996E-001	0,00000E+000	8	...........	-32768,00
	45	1,15	1,44802E-001	-2,67840E-005	0,00000E+000	1,44997E-001	0,00000E+000	8	...........	-32768,00
	60	1,525	1,59807E-001	-2,57602E-005	0,00000E+000	1,59999E-001	0,00000E+000	8	...........	-32768,00
	75	1,9	1,74807E-001	-2,48597E-005	0,00000E+000	1,75000E-001	0,00000E+000	8	...........	-32768,00
	90	2,275	1,89814E-001	-2,40398E-005	0,00000E+000	1,90001E-001	0,00000E+000	8	...........	-32768,00
	105	2,65	2,04805E-001	-2,32931E-005	0,00000E+000	2,05002E-001	0,00000E+000	8	...........	-32768,00
	120	3,025	2,19828E-001	-2,25846E-005	0,00000E+000	2,20003E-001	0,00000E+000	8	...........	-32768,00
	135	3,4	2,34826E-001	-2,19406E-005	0,00000E+000	2,35005E-001	0,00000E+000	8	...........	-32768,00
	150	3,775	2,49830E-001	-2,12762E-005	0,00000E+000	2,50006E-001	0,00000E+000	8	...........	-32768,00
	165	4,15	2,64820E-001	-2,06429E-005	0,00000E+000	2,64994E-001	0,00000E+000	8	...........	-32768,00
	180	4,525	2,79810E-001	-1,99384E-005	0,00000E+000	2,79996E-001	0,00000E+000	8	...........	-32768,00
	195	4,9	2,94798E-001	-1,92407E-005	0,00000E+000	2,94997E-001	0,00000E+000	8	...........	-32768,00
	210	5,275	3,09830E-001	-1,83468E-005	0,00000E+000	3,09998E-001	0,00000E+000	8	...........	-32768,00
	225	5,65	3,24841E-001	-1,73124E-005	0,00000E+000	3,24999E-001	0,00000E+000	8	...........	-32768,00
	240	6,025	3,39838E-001	-1,55221E-005	0,00000E+000	3,40000E-001	0,00000E+000	8	...........	-32768,00
	255	6,4	3,54830E-001	-1,31104E-005	0,00000E+000	3,55002E-001	0,00000E+000	8	...........	-32768,00
	270	6,775	3,69839E-001	-1,02872E-005	0,00000E+000	3,70003E-001	0,00000E+000	8	...........	-32768,00
	285	7,15	3,84875E-001	-6,62448E-006	0,00000E+000	3,85004E-001	0,00000E+000	7	...........	-32768,00
	300	7,525	3,99866E-001	-1,61507E-006	0,00000E+000	4,00005E-001	0,00000E+000	7	...........	-32768,00
	315	7,9	4,14816E-001	4,55112E-006	0,00000E+000	4,14994E-001	0,00000E+000	7	...........	-32768,00
	330	8,275	4,29863E-001	1,16070E-005	0,00000E+000	4,29995E-001	0,00000E+000	8	...........	-32768,00
	345	8,65	4,44843E-001	1,95033E-005	0,00000E+000	4,44996E-001	0,00000E+000	8	...........	-32768,00
	360	9,025	4,59834E-001	3,00125E-005	0,00000E+000	4,59998E-001	0,00000E+000	8	...........	-32768,00
	375	9,4	4,74873E-001	4,51112E-005	0,00000E+000	4,74999E-001	0,00000E+000	8	...........	-32768,00
	390	9,775	4,89855E-001	6,60535E-005	0,00000E+000	4,90000E-001	0,00000E+000	8	...........	-32768,00
	405	10,15	5,04872E-001	9,36528E-005	0,00000E+000	5,05001E-001	0,00000E+000	9	...........	-32768,00
	420	10,525	5,19887E-001	1,28301E-004	0,00000E+000	5,20002E-001	0,00000E+000	9	...........	-32768,00
	435	10,9	5,34885E-001	1,70148E-004	0,00000E+000	5,35004E-001	0,00000E+000	9	...........	-32768,00
	450	11,275	5,49885E-001	2,18825E-004	0,00000E+000	5,50005E-001	0,00000E+000	9	...........	-32768,00
	465	11,65	5,64915E-001	2,73208E-004	0,00000E+000	5,65006E-001	0,00000E+000	9	...........	-32768,00
	480	12,025	5,79884E-001	3,24353E-004	0,00000E+000	5,79995E-001	0,00000E+000	9	...........	-32768,00
	495	12,4	5,94887E-001	3,39790E-004	0,00000E+000	5,94996E-001	0,00000E+000	9	...........	-32768,00
	510	12,775	6,09895E-001	2,43998E-004	0,00000E+000	6,09997E-001	0,00000E+000	9	...........	-32768,00
	525	13,15	6,24894E-001	9,22153E-005	0,00000E+000	6,24998E-001	0,00000E+000	9	...........	-32768,00
	540	13,525	6,39891E-001	7,38866E-005	0,00000E+000	6,40000E-001	0,00000E+000	8	...........	-32768,00
	555	13,9	6,54916E-001	6,66647E-005	0,00000E+000	6,55001E-001	0,00000E+000	8	...........	-32768,00
	570	14,275	6,69922E-001	6,26886E-005	0,00000E+000	6,70002E-001	0,00000E+000	8	...........	-32768,00
	585	14,65	6,84922E-001	6,01779E-005	0,00000E+000	6,85003E-001	0,00000E+000	8	...........	-32768,00
	600	15,025	6,99930E-001	5,86550E-005	0,00000E+000	7,00004E-001	0,00000E+000	8	...........	-32768,00
	615	15,4	7,14925E-001	5,77712E-005	0,00000E+000	7,15006E-001	0,00000E+000	8	...........	-32768,00
	630	15,775	7,29920E-001	5,72567E-005	0,00000E+000	7,29994E-001	0,00000E+000	8	...........	-32768,00
	645	16,15	7,44943E-001	5,66958E-005	0,00000E+000	7,44995E-001	0,00000E+000	8	...........	-32768,00
	660	16,525	7,59945E-001	5,64393E-005	0,00000E+000	7,59997E-001	0,00000E+000	8	...........	-32768,00
	675	16,9	7,74956E-001	5,63241E-005	0,00000E+000	7,74998E-001	0,00000E+000	8	...........	-32768,00
	690	17,275	7,89965E-001	5,62615E-005	0,00000E+000	7,89999E-001	0,00000E+000	8	...........	-32768,00
	705	17,65	7,94965E-001	5,37357E-005	0,00000E+000	7,94999E-001	0,00000E+000	8	...........	-32768,00
	720	18,025	7,79948E-001	4,76625E-005	0,00000E+000	7,79998E-001	0,00000E+000	8	...........	-32768,00
	735	18,4	7,64927E-001	4,28241E-005	0,00000E+000	7,64997E-001	0,00000E+000	8	...........	-32768,00
[...]
	885	22,15	6,14888E-001	1,77644E-005	0,00000E+000	6,14998E-001	0,00000E+000	8	...........	-32768,00
	900	22,525	5,99882E-001	1,61703E-005	0,00000E+000	5,99996E-001	0,00000E+000	8	...........	-32768,00
	915	22,9	5,84888E-001	1,46514E-005	0,00000E+000	5,84995E-001	0,00000E+000	8	...........	-32768,00
	930	23,275	5,69874E-001	1,31460E-005	0,00000E+000	5,69994E-001	0,00000E+000	8	...........	-32768,00
	945	23,65	5,54889E-001	1,16872E-005	0,00000E+000	5,55005E-001	0,00000E+000	8	...........	-32768,00
	960	24,025	5,39891E-001	1,02620E-005	0,00000E+000	5,40004E-001	0,00000E+000	8	...........	-32768,00
	975	24,4	5,24857E-001	8,97823E-006	0,00000E+000	5,25003E-001	0,00000E+000	8	...........	-32768,00
	990	24,775	5,09870E-001	7,82098E-006	0,00000E+000	5,10002E-001	0,00000E+000	7	...........	-32768,00
	1005	25,15	4,94845E-001	6,74189E-006	0,00000E+000	4,95000E-001	0,00000E+000	7	...........	-32768,00
	1020	25,525	4,79866E-001	5,60873E-006	0,00000E+000	4,79999E-001	0,00000E+000	7	...........	-32768,00
	1035	25,9	4,64855E-001	4,37334E-006	0,00000E+000	4,64998E-001	0,00000E+000	7	...........	-32768,00
	1050	26,275	4,49851E-001	2,45979E-006	0,00000E+000	4,49997E-001	0,00000E+000	7	...........	-32768,00
	1065	26,65	4,34849E-001	-5,35889E-006	0,00000E+000	4,34996E-001	0,00000E+000	7	...........	-32768,00
	1080	27,025	4,19850E-001	-3,30123E-005	0,00000E+000	4,19994E-001	0,00000E+000	8	...........	-32768,00
	1095	27,4	4,04869E-001	-8,06567E-005	0,00000E+000	4,05006E-001	0,00000E+000	8	...........	-32768,00
	1110	27,775	3,89864E-001	-1,23663E-004	0,00000E+000	3,90004E-001	0,00000E+000	9	...........	-32768,00
	1125	28,15	3,74857E-001	-1,44404E-004	0,00000E+000	3,75003E-001	0,00000E+000	9	...........	-32768,00
	1140	28,525	3,59855E-001	-1,45330E-004	0,00000E+000	3,60002E-001	0,00000E+000	9	...........	-32768,00
	1155	28,9	3,44835E-001	-1,35813E-004	0,00000E+000	3,45001E-001	0,00000E+000	9	...........	-32768,00
	1170	29,275	3,29826E-001	-1,23173E-004	0,00000E+000	3,30000E-001	0,00000E+000	9	...........	-32768,00
	1185	29,65	3,14820E-001	-1,10989E-004	0,00000E+000	3,14998E-001	0,00000E+000	9	...........	-32768,00
	1200	30,025	2,99828E-001	-1,00416E-004	0,00000E+000	2,99997E-001	0,00000E+000	9	...........	-32768,00
	1215	30,4	2,84826E-001	-9,18645E-005	0,00000E+000	2,84996E-001	0,00000E+000	9	...........	-32768,00
	1230	30,775	2,69833E-001	-8,48278E-005	0,00000E+000	2,69995E-001	0,00000E+000	9	...........	-32768,00
	1245	31,15	2,54828E-001	-7,91745E-005	0,00000E+000	2,55006E-001	0,00000E+000	8	...........	-32768,00
	1260	31,525	2,39815E-001	-7,45778E-005	0,00000E+000	2,40005E-001	0,00000E+000	8	...........	-32768,00
	1275	31,9	2,24823E-001	-7,09990E-005	0,00000E+000	2,25004E-001	0,00000E+000	8	...........	-32768,00
	1290	32,275	2,09820E-001	-6,82550E-005	0,00000E+000	2,10003E-001	0,00000E+000	8	...........	-32768,00
	1305	32,65	1,94818E-001	-6,59628E-005	0,00000E+000	1,95001E-001	0,00000E+000	8	...........	-32768,00
	1320	33,025	1,79827E-001	-6,35987E-005	0,00000E+000	1,80000E-001	0,00000E+000	8	...........	-32768,00
	1335	33,4	1,64800E-001	-6,12351E-005	0,00000E+000	1,64999E-001	0,00000E+000	8	...........	-32768,00
	1350	33,775	1,49796E-001	-5,89798E-005	0,00000E+000	1,49998E-001	0,00000E+000	8	...........	-32768,00
	1365	34,15	1,34797E-001	-5,71604E-005	0,00000E+000	1,34997E-001	0,00000E+000	8	...........	-32768,00
	1380	34,525	1,19801E-001	-5,56857E-005	0,00000E+000	1,19995E-001	0,00000E+000	8	...........	-32768,00
	1395	34,9	1,04790E-001	-5,47186E-005	0,00000E+000	1,04994E-001	0,00000E+000	8	...........	-32768,00
	1400	35,025	9,97912E-002	-5,44067E-005	0,00000E+000	1,00006E-001	0,00000E+000	8	...........	-32768,00

File: AgNO3_HOPG_3mM_60mv_1_cv.DTA
EXPLAIN
TAG	CV
TITLE	LABEL	Cyclic Voltammetry	Test &Identifier
DATE	LABEL	30/4/2022	Date
TIME	LABEL	16:03:48	Time
NOTES	NOTES	2	&Notes...
	30/04/22 , 5mM  AgNO3

PSTAT	PSTAT	IFC1000-09004	Potentiostat
VINIT	POTEN	1,00000E-001	F	Initial &E (V)
VLIMIT1	POTEN	1,00000E-001	F	Scan Limit &1 (V)
VLIMIT2	POTEN	8,00000E-001	F	Scan Limit &2 (V)
VFINAL	POTEN	1,00000E-001	F	Final &E (V)
SCANRATE	QUANT	5,99999E+001	&Scan Rate (mV/s)
STEPSIZE	QUANT	1,00000E+000	St&ep Size (mV)
CYCLES	IQUANT	1	C&ycles (#)
IMODE	SELECTOR	0	I/E Range &Mode
IRANGE	QUANT	1,00000E-005	&Max Current (mA)
AREA	QUANT	1,00000E+000	Electrode &Area (cm^2)
ELECTRODETYPE	SELECTOR	0	Electrode Type
STRIPPING	TOGGLE	F	Used for Stripping
POLARITY	TOGGLE	F	Signal Polarity
CONDIT	TWOPARAM	F	1,50000E+001	0,00000E+000	Conditionin&g	Time(s)	E(V)
DELAY	TWOPARAM	F	3,00000E+001	0,00000E+000	Init. De&lay	Time(s)	Stab.(mV/s)
EQDELAY	QUANT	1,00000E+001	Equil. &Time (s)
IRCOMP	SELECTOR	0	IRCom&p
PFCOR	QUANT	5,00000E+001	PF Corr. (ohm)
SAMPLINGMODE	SELECTOR	1	Sampling &Mode
EOC	QUANT	0	Open Circuit (V)
PSTATMODEL	IQUANT	48	Pstat Model
PSTATSECTION	LABEL	IFC1000-09004	Pstat Section
PSTATSERIALNO	LABEL	09004	Pstat Serial Number
CTRLMODE	IQUANT	1	Control Mode
ELECTROMETER	IQUANT	0	RE=0 or CS=1
IESTAB	IQUANT	2	I/E Stability
CASPEED	IQUANT	4	Control Amp Speed
CONVENTION	IQUANT	1	Current Convention
ICHRANGE	IQUANT	2	Ich Range
ICHRANGEMODE	TOGGLE	F	Ich Auto Range
ICHOFFSETENABLE	TOGGLE	F	Ich Offset Enable
ICHOFFSET	QUANT	0	Ich Offset (V)
ICHFILTER	IQUANT	3	Ich Filter
VCHRANGE	IQUANT	2	Vch Range
VCHRANGEMODE	TOGGLE	F	Vch Auto Range
VCHOFFSETENABLE	TOGGLE	F	Vch Offset Enable
VCHOFFSET	QUANT	0	Vch Offset (V)
VCHFILTER	IQUANT	3	Vch Filter
IERANGELOWERLIMIT	IQUANT	4	I/E Range Lower Limit
IERANGEMODE	TOGGLE	T	I/E AutoRange
IERANGE	IQUANT	5	I/E Range
ACHSELECT	IQUANT	0	Ach Select
ACHRANGE	IQUANT	2	Ach Range
ACHOFFSETENABLE	TOGGLE	F	Ach Offset Enable
ACHOFFSET	QUANT	0	Ach Offset (V)
ACHFILTER	IQUANT	1	Ach Filter
CABLEID	IQUANT	14	Cable ID
DCCALDATE	LABEL	3/18/2022	DC Calibration Date
ACCALDATE	LABEL	3/10/2016	AC Calibration Date
FRAMEWORKVERSION	QUANT	7,05	Framework Version
INSTRUMENTVERSION	LABEL	4.21	Instrument Version
CURVE1	TABLE
	Pt	T	Vf	Im	Vu	Sig	Ach	IERange	Over	Temp
	#	s	V vs. Ref.	A	V	V	V	#	bits	deg C
	0	0,016667	9,98319E-002	-1,09478E-005	0,00000E+000	1,00006E-001	0,00000E+000	7	....ih..i..	-32768,00
	15	0,266667	1,14793E-001	-3,16686E-005	0,00000E+000	1,14995E-001	0,00000E+000	8	...........	-32768,00
	30	0,516667	1,29818E-001	-3,00735E-005	0,00000E+000	1,29996E-001	0,00000E+000	8	...........	-32768,00
	45	0,766667	1,44798E-001	-2,88706E-005	0,00000E+000	1,44997E-001	0,00000E+000	8	...........	-32768,00
	60	1,01667	1,59810E-001	-2,78102E-005	0,00000E+000	1,59999E-001	0,00000E+000	8	...........	-32768,00
	75	1,26667	1,74816E-001	-2,69128E-005	0,00000E+000	1,75000E-001	0,00000E+000	8	...........	-32768,00
	90	1,51667	1,89822E-001	-2,61140E-005	0,00000E+000	1,90001E-001	0,00000E+000	8	...........	-32768,00
	105	1,76667	2,04802E-001	-2,53956E-005	0,00000E+000	2,05002E-001	0,00000E+000	8	...........	-32768,00
	120	2,01667	2,19824E-001	-2,47276E-005	0,00000E+000	2,20003E-001	0,00000E+000	8	...........	-32768,00
	135	2,26667	2,34822E-001	-2,40863E-005	0,00000E+000	2,35005E-001	0,00000E+000	8	...........	-32768,00
	150	2,51667	2,49835E-001	-2,34487E-005	0,00000E+000	2,50006E-001	0,00000E+000	8	...........	-32768,00
	165	2,76667	2,64819E-001	-2,28074E-005	0,00000E+000	2,64994E-001	0,00000E+000	8	...........	-32768,00
	180	3,01667	2,79814E-001	-2,21347E-005	0,00000E+000	2,79996E-001	0,00000E+000	8	...........	-32768,00
	195	3,26667	2,94811E-001	-2,13804E-005	0,00000E+000	2,94997E-001	0,00000E+000	8	...........	-32768,00
	210	3,51667	3,09828E-001	-2,04726E-005	0,00000E+000	3,09998E-001	0,00000E+000	8	...........	-32768,00
	225	3,76667	3,24849E-001	-1,93200E-005	0,00000E+000	3,24999E-001	0,00000E+000	8	...........	-32768,00
	240	4,01667	3,39851E-001	-1,75312E-005	0,00000E+000	3,40000E-001	0,00000E+000	8	...........	-32768,00
	255	4,26667	3,54839E-001	-1,45756E-005	0,00000E+000	3,55002E-001	0,00000E+000	8	...........	-32768,00
	270	4,51667	3,69845E-001	-1,13812E-005	0,00000E+000	3,70003E-001	0,00000E+000	8	...........	-32768,00
	285	4,76667	3,84869E-001	-7,06395E-006	0,00000E+000	3,85004E-001	0,00000E+000	7	...........	-32768,00
	300	5,01667	3,99857E-001	-1,27533E-006	0,00000E+000	4,00005E-001	0,00000E+000	7	...........	-32768,00
	315	5,26667	4,14840E-001	5,91771E-006	0,00000E+000	4,14994E-001	0,00000E+000	7	...........	-32768,00
	330	5,51667	4,29855E-001	1,44289E-005	0,00000E+000	4,29995E-001	0,00000E+000	8	...........	-32768,00
	345	5,76667	4,44839E-001	2,42950E-005	0,00000E+000	4,44996E-001	0,00000E+000	8	...........	-32768,00
	360	6,01667	4,59836E-001	3,71455E-005	0,00000E+000	4,59998E-001	0,00000E+000	8	...........	-32768,00
	375	6,26667	4,74865E-001	5,52872E-005	0,00000E+000	4,74999E-001	0,00000E+000	8	...........	-32768,00
	390	6,51667	4,89867E-001	8,00860E-005	0,00000E+000	4,90000E-001	0,00000E+000	8	...........	-32768,00
	405	6,76667	5,04865E-001	1,12344E-004	0,00000E+000	5,05001E-001	0,00000E+000	9	...........	-32768,00
	420	7,01667	5,19881E-001	1,52619E-004	0,00000E+000	5,20002E-001	0,00000E+000	9	...........	-32768,00
	435	7,26667	5,34878E-001	2,00437E-004	0,00000E+000	5,35004E-001	0,00000E+000	9	...........	-32768,00
	450	7,51667	5,49896E-001	2,54884E-004	0,00000E+000	5,50005E-001	0,00000E+000	9	...........	-32768,00
	465	7,76667	5,64918E-001	3,15557E-004	0,00000E+000	5,65006E-001	0,00000E+000	9	...........	-32768,00
	480	8,01667	5,79891E-001	3,78968E-004	0,00000E+000	5,79995E-001	0,00000E+000	9	...........	-32768,00
	495	8,26667	5,94892E-001	4,36864E-004	0,00000E+000	5,94996E-001	0,00000E+000	9	...........	-32768,00
	510	8,51667	6,09897E-001	4,55275E-004	0,00000E+000	6,09997E-001	0,00000E+000	9	...........	-32768,00
	525	8,76667	6,24885E-001	3,80765E-004	0,00000E+000	6,24998E-001	0,00000E+000	9	...........	-32768,00
	540	9,01667	6,39919E-001	1,46348E-004	0,00000E+000	6,40000E-001	0,00000E+000	9	...........	-32768,00
	555	9,26667	6,54918E-001	1,01633E-004	0,00000E+000	6,55001E-001	0,00000E+000	9	...........	-32768,00
	570	9,5167	6,69935E-001	8,75845E-005	0,00000E+000	6,70002E-001	0,00000E+000	9	...........	-32768,00
	585	9,7667	6,84927E-001	8,00012E-005	0,00000E+000	6,85003E-001	0,00000E+000	8	...........	-32768,00
	600	10,0167	6,99935E-001	7,52684E-005	0,00000E+000	7,00004E-001	0,00000E+000	8	...........	-32768,00
	615	10,2667	7,14929E-001	7,21155E-005	0,00000E+000	7,15006E-001	0,00000E+000	8	...........	-32768,00
	630	10,5167	7,29923E-001	6,99570E-005	0,00000E+000	7,29994E-001	0,00000E+000	8	...........	-32768,00
	645	10,7667	7,44948E-001	6,82449E-005	0,00000E+000	7,44995E-001	0,00000E+000	8	...........	-32768,00
	660	11,0167	7,59944E-001	6,70825E-005	0,00000E+000	7,59997E-001	0,00000E+000	8	...........	-32768,00
	675	11,2667	7,74961E-001	6,61403E-005	0,00000E+000	7,74998E-001	0,00000E+000	8	...........	-32768,00
	690	11,5167	7,89952E-001	6,53966E-005	0,00000E+000	7,89999E-001	0,00000E+000	8	...........	-32768,00
	705	11,7667	7,94980E-001	6,17275E-005	0,00000E+000	7,94999E-001	0,00000E+000	8	...........	-32768,00
	720	12,0167	7,79959E-001	5,41323E-005	0,00000E+000	7,79998E-001	0,00000E+000	8	...........	-32768,00
[...]
	900	15,0167	5,99885E-001	1,68448E-005	0,00000E+000	5,99996E-001	0,00000E+000	8	...........	-32768,00
	915	15,2667	5,84885E-001	1,50966E-005	0,00000E+000	5,84995E-001	0,00000E+000	8	...........	-32768,00
	930	15,5167	5,69867E-001	1,33793E-005	0,00000E+000	5,69994E-001	0,00000E+000	8	...........	-32768,00
	945	15,7667	5,54887E-001	1,17006E-005	0,00000E+000	5,55005E-001	0,00000E+000	8	...........	-32768,00
	960	16,0167	5,39888E-001	1,01033E-005	0,00000E+000	5,40004E-001	0,00000E+000	8	...........	-32768,00
	975	16,2667	5,24868E-001	8,68859E-006	0,00000E+000	5,25003E-001	0,00000E+000	8	...........	-32768,00
	990	16,5167	5,09849E-001	7,43625E-006	0,00000E+000	5,10002E-001	0,00000E+000	7	...........	-32768,00
	1005	16,7667	4,94857E-001	6,22968E-006	0,00000E+000	4,95000E-001	0,00000E+000	7	...........	-32768,00
	1020	17,0167	4,79868E-001	4,96535E-006	0,00000E+000	4,79999E-001	0,00000E+000	7	...........	-32768,00
	1035	17,2667	4,64850E-001	3,55430E-006	0,00000E+000	4,64998E-001	0,00000E+000	7	...........	-32768,00
	1050	17,5167	4,49852E-001	1,37027E-006	0,00000E+000	4,49997E-001	0,00000E+000	7	...........	-32768,00
	1065	17,7667	4,34851E-001	-7,97225E-006	0,00000E+000	4,34996E-001	0,00000E+000	7	...........	-32768,00
	1080	18,0167	4,19841E-001	-3,98127E-005	0,00000E+000	4,19994E-001	0,00000E+000	8	...........	-32768,00
	1095	18,2667	4,04853E-001	-9,61440E-005	0,00000E+000	4,05006E-001	0,00000E+000	9	...........	-32768,00
	1110	18,5167	3,89865E-001	-1,52284E-004	0,00000E+000	3,90004E-001	0,00000E+000	9	...........	-32768,00
	1125	18,7667	3,74860E-001	-1,83714E-004	0,00000E+000	3,75003E-001	0,00000E+000	9	...........	-32768,00
	1140	19,0167	3,59860E-001	-1,89802E-004	0,00000E+000	3,60002E-001	0,00000E+000	9	...........	-32768,00
	1155	19,2667	3,44832E-001	-1,80650E-004	0,00000E+000	3,45001E-001	0,00000E+000	9	...........	-32768,00
	1170	19,5167	3,29837E-001	-1,65372E-004	0,00000E+000	3,30000E-001	0,00000E+000	9	...........	-32768,00
	1185	19,7667	3,14829E-001	-1,49314E-004	0,00000E+000	3,14998E-001	0,00000E+000	9	...........	-32768,00
	1200	20,0167	2,99819E-001	-1,34895E-004	0,00000E+000	2,99997E-001	0,00000E+000	9	...........	-32768,00
	1215	20,2667	2,84826E-001	-1,22709E-004	0,00000E+000	2,84996E-001	0,00000E+000	9	...........	-32768,00
	1230	20,5167	2,69840E-001	-1,12795E-004	0,00000E+000	2,69995E-001	0,00000E+000	9	...........	-32768,00
	1245	20,7667	2,54806E-001	-1,04610E-004	0,00000E+000	2,55006E-001	0,00000E+000	9	...........	-32768,00
	1260	21,0167	2,39793E-001	-9,78177E-005	0,00000E+000	2,40005E-001	0,00000E+000	9	...........	-32768,00
	1275	21,2667	2,24803E-001	-9,22929E-005	0,00000E+000	2,25004E-001	0,00000E+000	9	...........	-32768,00
	1290	21,5167	2,09819E-001	-8,78985E-005	0,00000E+000	2,10003E-001	0,00000E+000	9	...........	-32768,00
	1305	21,7667	1,94803E-001	-8,45006E-005	0,00000E+000	1,95001E-001	0,00000E+000	9	...........	-32768,00
	1320	22,0167	1,79826E-001	-8,16118E-005	0,00000E+000	1,80000E-001	0,00000E+000	9	...........	-32768,00
	1335	22,2667	1,64803E-001	-7,89708E-005	0,00000E+000	1,64999E-001	0,00000E+000	8	...........	-32768,00
	1350	22,5167	1,49797E-001	-7,63942E-005	0,00000E+000	1,49998E-001	0,00000E+000	8	...........	-32768,00
	1365	22,7667	1,34803E-001	-7,38122E-005	0,00000E+000	1,34997E-001	0,00000E+000	8	...........	-32768,00
	1380	23,0167	1,19803E-001	-7,14604E-005	0,00000E+000	1,19995E-001	0,00000E+000	8	...........	-32768,00
	1395	23,2667	1,04790E-001	-6,93666E-005	0,00000E+000	1,04994E-001	0,00000E+000	8	...........	-32768,00
	1400	23,35	9,98064E-002	-6,87743E-005	0,00000E+000	1,00006E-001	0,00000E+000	8	...........	-32768,00