Folder: Date_latest/HOPG_cv/3mM (part 4)

File: AgNO3_HOPG_3mM_90mv_1_cv.DTA
EXPLAIN
TAG	CV
TITLE	LABEL	Cyclic Voltammetry	Test &Identifier
DATE	LABEL	30/4/2022	Date
TIME	LABEL	16:00:45	Time
NOTES	NOTES	2	&Notes...
	30/04/22 , 5mM  AgNO3

PSTAT	PSTAT	IFC1000-09004	Potentiostat
VINIT	POTEN	1,00000E-001	F	Initial &E (V)
VLIMIT1	POTEN	1,00000E-001	F	Scan Limit &1 (V)
VLIMIT2	POTEN	8,00000E-001	F	Scan Limit &2 (V)
VFINAL	POTEN	1,00000E-001	F	Final &E (V)
SCANRATE	QUANT	8,99548E+001	&Scan Rate (mV/s)
STEPSIZE	QUANT	1,00000E+000	St&ep Size (mV)
CYCLES	IQUANT	1	C&ycles (#)
IMODE	SELECTOR	0	I/E Range &Mode
IRANGE	QUANT	1,00000E-005	&Max Current (mA)
AREA	QUANT	1,00000E+000	Electrode &Area (cm^2)
ELECTRODETYPE	SELECTOR	0	Electrode Type
STRIPPING	TOGGLE	F	Used for Stripping
POLARITY	TOGGLE	F	Signal Polarity
CONDIT	TWOPARAM	F	1,50000E+001	0,00000E+000	Conditionin&g	Time(s)	E(V)
DELAY	TWOPARAM	F	3,00000E+001	0,00000E+000	Init. De&lay	Time(s)	Stab.(mV/s)
EQDELAY	QUANT	1,00000E+001	Equil. &Time (s)
IRCOMP	SELECTOR	0	IRCom&p
PFCOR	QUANT	5,00000E+001	PF Corr. (ohm)
SAMPLINGMODE	SELECTOR	1	Sampling &Mode
EOC	QUANT	0	Open Circuit (V)
PSTATMODEL	IQUANT	48	Pstat Model
PSTATSECTION	LABEL	IFC1000-09004	Pstat Section
PSTATSERIALNO	LABEL	09004	Pstat Serial Number
CTRLMODE	IQUANT	1	Control Mode
ELECTROMETER	IQUANT	0	RE=0 or CS=1
IESTAB	IQUANT	2	I/E Stability
CASPEED	IQUANT	4	Control Amp Speed
CONVENTION	IQUANT	1	Current Convention
ICHRANGE	IQUANT	2	Ich Range
ICHRANGEMODE	TOGGLE	F	Ich Auto Range
ICHOFFSETENABLE	TOGGLE	F	Ich Offset Enable
ICHOFFSET	QUANT	0	Ich Offset (V)
ICHFILTER	IQUANT	3	Ich Filter
VCHRANGE	IQUANT	2	Vch Range
VCHRANGEMODE	TOGGLE	F	Vch Auto Range
VCHOFFSETENABLE	TOGGLE	F	Vch Offset Enable
VCHOFFSET	QUANT	0	Vch Offset (V)
VCHFILTER	IQUANT	3	Vch Filter
IERANGELOWERLIMIT	IQUANT	4	I/E Range Lower Limit
IERANGEMODE	TOGGLE	T	I/E AutoRange
IERANGE	IQUANT	5	I/E Range
ACHSELECT	IQUANT	0	Ach Select
ACHRANGE	IQUANT	2	Ach Range
ACHOFFSETENABLE	TOGGLE	F	Ach Offset Enable
ACHOFFSET	QUANT	0	Ach Offset (V)
ACHFILTER	IQUANT	1	Ach Filter
CABLEID	IQUANT	14	Cable ID
DCCALDATE	LABEL	3/18/2022	DC Calibration Date
ACCALDATE	LABEL	3/10/2016	AC Calibration Date
FRAMEWORKVERSION	QUANT	7,05	Framework Version
INSTRUMENTVERSION	LABEL	4.21	Instrument Version
CURVE1	TABLE
	Pt	T	Vf	Im	Vu	Sig	Ach	IERange	Over	Temp
	#	s	V vs. Ref.	A	V	V	V	#	bits	deg C
	0	0,011117	9,97923E-002	-3,90348E-005	0,00000E+000	1,00006E-001	0,00000E+000	8	...........	-32768,00
	15	0,177867	1,14800E-001	-3,62233E-005	0,00000E+000	1,15007E-001	0,00000E+000	8	...........	-32768,00
	30	0,344617	1,29832E-001	-3,46149E-005	0,00000E+000	1,30021E-001	0,00000E+000	8	...........	-32768,00
	45	0,511367	1,44824E-001	-3,34159E-005	0,00000E+000	1,45022E-001	0,00000E+000	8	...........	-32768,00
	60	0,678117	1,59844E-001	-3,24315E-005	0,00000E+000	1,60036E-001	0,00000E+000	8	...........	-32768,00
	75	0,844867	1,74841E-001	-3,16195E-005	0,00000E+000	1,75037E-001	0,00000E+000	8	...........	-32768,00
	90	1,01162	1,89853E-001	-3,08415E-005	0,00000E+000	1,90051E-001	0,00000E+000	8	...........	-32768,00
	105	1,17837	2,04864E-001	-3,01981E-005	0,00000E+000	2,05052E-001	0,00000E+000	8	...........	-32768,00
	120	1,34512	2,19892E-001	-2,95803E-005	0,00000E+000	2,20066E-001	0,00000E+000	8	...........	-32768,00
	135	1,51187	2,34901E-001	-2,89482E-005	0,00000E+000	2,35067E-001	0,00000E+000	8	...........	-32768,00
	150	1,67862	2,49906E-001	-2,83377E-005	0,00000E+000	2,50081E-001	0,00000E+000	8	...........	-32768,00
	165	1,84537	2,64913E-001	-2,77209E-005	0,00000E+000	2,65082E-001	0,00000E+000	8	...........	-32768,00
	180	2,01212	2,79903E-001	-2,70445E-005	0,00000E+000	2,80096E-001	0,00000E+000	8	...........	-32768,00
	195	2,17887	2,94911E-001	-2,62818E-005	0,00000E+000	2,95097E-001	0,00000E+000	8	...........	-32768,00
	210	2,34562	3,09946E-001	-2,53568E-005	0,00000E+000	3,10111E-001	0,00000E+000	8	...........	-32768,00
	225	2,51237	3,24961E-001	-2,41609E-005	0,00000E+000	3,25112E-001	0,00000E+000	8	...........	-32768,00
	240	2,67912	3,39972E-001	-2,24156E-005	0,00000E+000	3,40125E-001	0,00000E+000	8	...........	-32768,00
	255	2,84587	3,54956E-001	-1,91998E-005	0,00000E+000	3,55127E-001	0,00000E+000	8	...........	-32768,00
	270	3,01262	3,69976E-001	-1,56022E-005	0,00000E+000	3,70140E-001	0,00000E+000	8	...........	-32768,00
	285	3,17937	3,85018E-001	-1,07366E-005	0,00000E+000	3,85142E-001	0,00000E+000	8	...........	-32768,00
	300	3,34612	4,00002E-001	-3,98445E-006	0,00000E+000	4,00155E-001	0,00000E+000	8	...........	-32768,00
	315	3,51287	4,15000E-001	4,94132E-006	0,00000E+000	4,15156E-001	0,00000E+000	8	...........	-32768,00
	330	3,67962	4,30028E-001	1,58182E-005	0,00000E+000	4,30170E-001	0,00000E+000	8	...........	-32768,00
	345	3,84637	4,45020E-001	2,85248E-005	0,00000E+000	4,45171E-001	0,00000E+000	8	...........	-32768,00
	360	4,01312	4,60028E-001	4,48917E-005	0,00000E+000	4,60185E-001	0,00000E+000	8	...........	-32768,00
	375	4,17987	4,75060E-001	6,73907E-005	0,00000E+000	4,75186E-001	0,00000E+000	8	...........	-32768,00
	390	4,34662	4,90060E-001	9,79386E-005	0,00000E+000	4,90200E-001	0,00000E+000	9	...........	-32768,00
	405	4,51337	5,05073E-001	1,37449E-004	0,00000E+000	5,05201E-001	0,00000E+000	9	...........	-32768,00
	420	4,68012	5,20096E-001	1,86502E-004	0,00000E+000	5,20215E-001	0,00000E+000	9	...........	-32768,00
	435	4,84687	5,35096E-001	2,44862E-004	0,00000E+000	5,35216E-001	0,00000E+000	9	...........	-32768,00
	450	5,01362	5,50102E-001	3,11432E-004	0,00000E+000	5,50230E-001	0,00000E+000	9	...........	-32768,00
	465	5,18037	5,65130E-001	3,84739E-004	0,00000E+000	5,65231E-001	0,00000E+000	9	...........	-32768,00
	480	5,34712	5,80140E-001	4,64454E-004	0,00000E+000	5,80245E-001	0,00000E+000	9	...........	-32768,00
	495	5,51387	5,95137E-001	5,49185E-004	0,00000E+000	5,95246E-001	0,00000E+000	9	...........	-32768,00
	510	5,68062	6,10152E-001	6,37064E-004	0,00000E+000	6,10260E-001	0,00000E+000	9	...........	-32768,00
	525	5,84737	6,25149E-001	7,21696E-004	0,00000E+000	6,25261E-001	0,00000E+000	9	...........	-32768,00
	540	6,01412	6,40169E-001	7,87158E-004	0,00000E+000	6,40275E-001	0,00000E+000	9	...........	-32768,00
	555	6,18087	6,55203E-001	8,02046E-004	0,00000E+000	6,55276E-001	0,00000E+000	9	...........	-32768,00
	570	6,34762	6,70210E-001	7,27234E-004	0,00000E+000	6,70289E-001	0,00000E+000	9	...........	-32768,00
	585	6,51437	6,85239E-001	4,27733E-004	0,00000E+000	6,85291E-001	0,00000E+000	9	...........	-32768,00
	600	6,68112	7,00237E-001	1,60883E-004	0,00000E+000	7,00304E-001	0,00000E+000	9	...........	-32768,00
	615	6,84787	7,15235E-001	1,20533E-004	0,00000E+000	7,15306E-001	0,00000E+000	9	...........	-32768,00
	630	7,01462	7,30239E-001	1,01572E-004	0,00000E+000	7,30319E-001	0,00000E+000	9	...........	-32768,00
	645	7,18137	7,45292E-001	9,02097E-005	0,00000E+000	7,45320E-001	0,00000E+000	9	...........	-32768,00
	660	7,34812	7,60286E-001	8,27598E-005	0,00000E+000	7,60334E-001	0,00000E+000	9	...........	-32768,00
	675	7,51487	7,75306E-001	7,74281E-005	0,00000E+000	7,75335E-001	0,00000E+000	8	...........	-32768,00
	690	7,68162	7,90308E-001	7,34458E-005	0,00000E+000	7,90349E-001	0,00000E+000	8	...........	-32768,00
	705	7,84837	7,95324E-001	6,67316E-005	0,00000E+000	7,95349E-001	0,00000E+000	8	...........	-32768,00
	720	8,01512	7,80284E-001	5,66846E-005	0,00000E+000	7,80336E-001	0,00000E+000	8	...........	-32768,00
[...]
	900	10,0161	6,00141E-001	1,56121E-005	0,00000E+000	6,00246E-001	0,00000E+000	8	...........	-32768,00
	915	10,1829	5,85135E-001	1,37988E-005	0,00000E+000	5,85245E-001	0,00000E+000	8	...........	-32768,00
	930	10,3496	5,70102E-001	1,20117E-005	0,00000E+000	5,70231E-001	0,00000E+000	8	...........	-32768,00
	945	10,5164	5,55111E-001	1,03250E-005	0,00000E+000	5,55230E-001	0,00000E+000	8	...........	-32768,00
	960	10,6831	5,40104E-001	8,87116E-006	0,00000E+000	5,40217E-001	0,00000E+000	8	...........	-32768,00
	975	10,8499	5,25063E-001	7,63026E-006	0,00000E+000	5,25215E-001	0,00000E+000	8	...........	-32768,00
	990	11,0166	5,10065E-001	6,48017E-006	0,00000E+000	5,10202E-001	0,00000E+000	8	...........	-32768,00
	1005	11,1834	4,95058E-001	5,27241E-006	0,00000E+000	4,95200E-001	0,00000E+000	8	...........	-32768,00
	1020	11,3501	4,80048E-001	3,92348E-006	0,00000E+000	4,80187E-001	0,00000E+000	8	...........	-32768,00
	1035	11,5169	4,65043E-001	2,21742E-006	0,00000E+000	4,65185E-001	0,00000E+000	8	...........	-32768,00
	1050	11,6836	4,50035E-001	-2,95098E-006	0,00000E+000	4,50172E-001	0,00000E+000	8	...........	-32768,00
	1065	11,8504	4,35024E-001	-4,00722E-005	0,00000E+000	4,35171E-001	0,00000E+000	8	...........	-32768,00
	1080	12,0171	4,20003E-001	-1,25356E-004	0,00000E+000	4,20157E-001	0,00000E+000	9	...........	-32768,00
	1095	12,1839	4,05013E-001	-2,08800E-004	0,00000E+000	4,05156E-001	0,00000E+000	9	...........	-32768,00
	1110	12,3506	3,90000E-001	-2,66393E-004	0,00000E+000	3,90142E-001	0,00000E+000	9	...........	-32768,00
	1125	12,5174	3,74991E-001	-2,98204E-004	0,00000E+000	3,75141E-001	0,00000E+000	9	...........	-32768,00
	1140	12,6841	3,59977E-001	-3,05083E-004	0,00000E+000	3,60127E-001	0,00000E+000	9	...........	-32768,00
	1155	12,8509	3,44965E-001	-2,92513E-004	0,00000E+000	3,45126E-001	0,00000E+000	9	...........	-32768,00
	1170	13,0176	3,29940E-001	-2,69871E-004	0,00000E+000	3,30112E-001	0,00000E+000	9	...........	-32768,00
	1185	13,1844	3,14935E-001	-2,44466E-004	0,00000E+000	3,15111E-001	0,00000E+000	9	...........	-32768,00
	1200	13,3511	2,99921E-001	-2,20630E-004	0,00000E+000	3,00097E-001	0,00000E+000	9	...........	-32768,00
	1215	13,5179	2,84917E-001	-1,99980E-004	0,00000E+000	2,85096E-001	0,00000E+000	9	...........	-32768,00
	1230	13,6846	2,69927E-001	-1,82625E-004	0,00000E+000	2,70082E-001	0,00000E+000	9	...........	-32768,00
	1245	13,8514	2,54887E-001	-1,68185E-004	0,00000E+000	2,55081E-001	0,00000E+000	9	...........	-32768,00
	1260	14,0181	2,39874E-001	-1,56133E-004	0,00000E+000	2,40067E-001	0,00000E+000	9	...........	-32768,00
	1275	14,1849	2,24871E-001	-1,46060E-004	0,00000E+000	2,25066E-001	0,00000E+000	9	...........	-32768,00
	1290	14,3516	2,09864E-001	-1,37675E-004	0,00000E+000	2,10053E-001	0,00000E+000	9	...........	-32768,00
	1305	14,5184	1,94868E-001	-1,30670E-004	0,00000E+000	1,95051E-001	0,00000E+000	9	...........	-32768,00
	1320	14,6851	1,79871E-001	-1,24885E-004	0,00000E+000	1,80038E-001	0,00000E+000	9	...........	-32768,00
	1335	14,8519	1,64843E-001	-1,20083E-004	0,00000E+000	1,65036E-001	0,00000E+000	9	...........	-32768,00
	1350	15,0186	1,49813E-001	-1,15756E-004	0,00000E+000	1,50023E-001	0,00000E+000	9	...........	-32768,00
	1365	15,1854	1,34827E-001	-1,12225E-004	0,00000E+000	1,35022E-001	0,00000E+000	9	...........	-32768,00
	1380	15,3521	1,19808E-001	-1,08750E-004	0,00000E+000	1,20008E-001	0,00000E+000	9	...........	-32768,00
	1395	15,5189	1,04802E-001	-1,05491E-004	0,00000E+000	1,05007E-001	0,00000E+000	9	...........	-32768,00
	1400	15,5745	9,97938E-002	-1,04541E-004	0,00000E+000	1,00006E-001	0,00000E+000	9	...........	-32768,00