Folder: Date_latest/HOPG_cv/5mM (part 2)

File: AgNO3_HOPG_5mM_50mv_1_cv.DTA
EXPLAIN
TAG	CV
TITLE	LABEL	Cyclic Voltammetry	Test &Identifier
DATE	LABEL	30/4/2022	Date
TIME	LABEL	14:23:01	Time
NOTES	NOTES	2	&Notes...
	30/04/22 , 5mM  AgNO3

PSTAT	PSTAT	IFC1000-09004	Potentiostat
VINIT	POTEN	1,00000E-001	F	Initial &E (V)
VLIMIT1	POTEN	1,00000E-001	F	Scan Limit &1 (V)
VLIMIT2	POTEN	8,00000E-001	F	Scan Limit &2 (V)
VFINAL	POTEN	1,00000E-001	F	Final &E (V)
SCANRATE	QUANT	4,99999E+001	&Scan Rate (mV/s)
STEPSIZE	QUANT	1,00000E+000	St&ep Size (mV)
CYCLES	IQUANT	1	C&ycles (#)
IMODE	SELECTOR	0	I/E Range &Mode
IRANGE	QUANT	1,00000E-005	&Max Current (mA)
AREA	QUANT	1,00000E+000	Electrode &Area (cm^2)
ELECTRODETYPE	SELECTOR	0	Electrode Type
STRIPPING	TOGGLE	F	Used for Stripping
POLARITY	TOGGLE	F	Signal Polarity
CONDIT	TWOPARAM	F	1,50000E+001	0,00000E+000	Conditionin&g	Time(s)	E(V)
DELAY	TWOPARAM	F	3,00000E+001	0,00000E+000	Init. De&lay	Time(s)	Stab.(mV/s)
EQDELAY	QUANT	1,00000E+001	Equil. &Time (s)
IRCOMP	SELECTOR	0	IRCom&p
PFCOR	QUANT	5,00000E+001	PF Corr. (ohm)
SAMPLINGMODE	SELECTOR	1	Sampling &Mode
EOC	QUANT	0	Open Circuit (V)
PSTATMODEL	IQUANT	48	Pstat Model
PSTATSECTION	LABEL	IFC1000-09004	Pstat Section
PSTATSERIALNO	LABEL	09004	Pstat Serial Number
CTRLMODE	IQUANT	1	Control Mode
ELECTROMETER	IQUANT	0	RE=0 or CS=1
IESTAB	IQUANT	2	I/E Stability
CASPEED	IQUANT	4	Control Amp Speed
CONVENTION	IQUANT	1	Current Convention
ICHRANGE	IQUANT	2	Ich Range
ICHRANGEMODE	TOGGLE	F	Ich Auto Range
ICHOFFSETENABLE	TOGGLE	F	Ich Offset Enable
ICHOFFSET	QUANT	0	Ich Offset (V)
ICHFILTER	IQUANT	3	Ich Filter
VCHRANGE	IQUANT	2	Vch Range
VCHRANGEMODE	TOGGLE	F	Vch Auto Range
VCHOFFSETENABLE	TOGGLE	F	Vch Offset Enable
VCHOFFSET	QUANT	0	Vch Offset (V)
VCHFILTER	IQUANT	3	Vch Filter
IERANGELOWERLIMIT	IQUANT	4	I/E Range Lower Limit
IERANGEMODE	TOGGLE	T	I/E AutoRange
IERANGE	IQUANT	5	I/E Range
ACHSELECT	IQUANT	0	Ach Select
ACHRANGE	IQUANT	2	Ach Range
ACHOFFSETENABLE	TOGGLE	F	Ach Offset Enable
ACHOFFSET	QUANT	0	Ach Offset (V)
ACHFILTER	IQUANT	1	Ach Filter
CABLEID	IQUANT	14	Cable ID
DCCALDATE	LABEL	3/18/2022	DC Calibration Date
ACCALDATE	LABEL	3/10/2016	AC Calibration Date
FRAMEWORKVERSION	QUANT	7,05	Framework Version
INSTRUMENTVERSION	LABEL	4.21	Instrument Version
CURVE1	TABLE
	Pt	T	Vf	Im	Vu	Sig	Ach	IERange	Over	Temp
	#	s	V vs. Ref.	A	V	V	V	#	bits	deg C
	0	0,02	9,98765E-002	-1,09478E-005	0,00000E+000	1,00006E-001	0,00000E+000	7	....ih..i..	-32768,00
	15	0,32	1,14824E-001	-3,13332E-005	0,00000E+000	1,14995E-001	0,00000E+000	8	...........	-32768,00
	30	0,62	1,29850E-001	-2,69857E-005	0,00000E+000	1,29996E-001	0,00000E+000	8	...........	-32768,00
	45	0,92	1,44838E-001	-2,31408E-005	0,00000E+000	1,44997E-001	0,00000E+000	8	...........	-32768,00
	60	1,22	1,59844E-001	-1,98033E-005	0,00000E+000	1,59999E-001	0,00000E+000	8	...........	-32768,00
	75	1,52	1,74853E-001	-1,69041E-005	0,00000E+000	1,75000E-001	0,00000E+000	8	...........	-32768,00
	90	1,82	1,89847E-001	-1,43731E-005	0,00000E+000	1,90001E-001	0,00000E+000	8	...........	-32768,00
	105	2,12	2,04845E-001	-1,18933E-005	0,00000E+000	2,05002E-001	0,00000E+000	8	...........	-32768,00
	120	2,42	2,19851E-001	-9,55423E-006	0,00000E+000	2,20003E-001	0,00000E+000	8	...........	-32768,00
	135	2,72	2,34870E-001	-7,23251E-006	0,00000E+000	2,35005E-001	0,00000E+000	7	...........	-32768,00
	150	3,02	2,49856E-001	-4,89897E-006	0,00000E+000	2,50006E-001	0,00000E+000	7	...........	-32768,00
	165	3,32	2,64865E-001	-2,54661E-006	0,00000E+000	2,64994E-001	0,00000E+000	7	...........	-32768,00
	180	3,62	2,79844E-001	-1,45521E-007	0,00000E+000	2,79996E-001	0,00000E+000	7	...........	-32768,00
	195	3,92	2,94832E-001	2,35932E-006	0,00000E+000	2,94997E-001	0,00000E+000	7	...........	-32768,00
	210	4,22	3,09860E-001	4,89941E-006	0,00000E+000	3,09998E-001	0,00000E+000	7	...........	-32768,00
	225	4,52	3,24861E-001	7,67917E-006	0,00000E+000	3,24999E-001	0,00000E+000	7	...........	-32768,00
	240	4,82	3,39863E-001	1,05695E-005	0,00000E+000	3,40000E-001	0,00000E+000	8	...........	-32768,00
	255	5,12	3,54856E-001	1,38595E-005	0,00000E+000	3,55002E-001	0,00000E+000	8	...........	-32768,00
	270	5,42	3,69853E-001	1,75762E-005	0,00000E+000	3,70003E-001	0,00000E+000	8	...........	-32768,00
	285	5,72	3,84887E-001	2,18216E-005	0,00000E+000	3,85004E-001	0,00000E+000	8	...........	-32768,00
	300	6,02	3,99873E-001	2,67752E-005	0,00000E+000	4,00005E-001	0,00000E+000	8	...........	-32768,00
	315	6,32	4,14853E-001	3,21222E-005	0,00000E+000	4,14994E-001	0,00000E+000	8	...........	-32768,00
	330	6,62	4,29866E-001	3,75895E-005	0,00000E+000	4,29995E-001	0,00000E+000	8	...........	-32768,00
	345	6,92	4,44848E-001	4,30402E-005	0,00000E+000	4,44996E-001	0,00000E+000	8	...........	-32768,00
	360	7,22	4,59846E-001	4,87656E-005	0,00000E+000	4,59998E-001	0,00000E+000	8	...........	-32768,00
	375	7,52	4,74886E-001	5,48322E-005	0,00000E+000	4,74999E-001	0,00000E+000	8	...........	-32768,00
	390	7,82	4,89877E-001	6,13063E-005	0,00000E+000	4,90000E-001	0,00000E+000	8	...........	-32768,00
	405	8,12	5,04873E-001	6,87429E-005	0,00000E+000	5,05001E-001	0,00000E+000	8	...........	-32768,00
	420	8,42	5,19886E-001	7,79459E-005	0,00000E+000	5,20002E-001	0,00000E+000	8	...........	-32768,00
	435	8,72	5,34896E-001	8,95498E-005	0,00000E+000	5,35004E-001	0,00000E+000	8	...........	-32768,00
	450	9,02	5,49890E-001	1,04045E-004	0,00000E+000	5,50005E-001	0,00000E+000	9	...........	-32768,00
	465	9,32	5,64917E-001	1,21194E-004	0,00000E+000	5,65006E-001	0,00000E+000	9	...........	-32768,00
	480	9,62	5,79894E-001	1,40620E-004	0,00000E+000	5,79995E-001	0,00000E+000	9	...........	-32768,00
	495	9,92	5,94893E-001	1,67495E-004	0,00000E+000	5,94996E-001	0,00000E+000	9	...........	-32768,00
	510	10,22	6,09887E-001	2,00690E-004	0,00000E+000	6,09997E-001	0,00000E+000	9	...........	-32768,00
	525	10,52	6,24887E-001	2,33650E-004	0,00000E+000	6,24998E-001	0,00000E+000	9	...........	-32768,00
	540	10,82	6,39905E-001	2,43538E-004	0,00000E+000	6,40000E-001	0,00000E+000	9	...........	-32768,00
	555	11,12	6,54918E-001	1,82247E-004	0,00000E+000	6,55001E-001	0,00000E+000	9	...........	-32768,00
	570	11,42	6,69930E-001	1,53585E-004	0,00000E+000	6,70002E-001	0,00000E+000	9	...........	-32768,00
	585	11,72	6,84927E-001	1,46528E-004	0,00000E+000	6,85003E-001	0,00000E+000	9	...........	-32768,00
	600	12,02	6,99943E-001	1,45045E-004	0,00000E+000	7,00004E-001	0,00000E+000	9	...........	-32768,00
	615	12,32	7,14925E-001	1,46003E-004	0,00000E+000	7,15006E-001	0,00000E+000	9	...........	-32768,00
	630	12,62	7,29915E-001	1,48259E-004	0,00000E+000	7,29994E-001	0,00000E+000	9	...........	-32768,00
	645	12,92	7,44934E-001	1,51245E-004	0,00000E+000	7,44995E-001	0,00000E+000	9	...........	-32768,00
	660	13,22	7,59942E-001	1,54706E-004	0,00000E+000	7,59997E-001	0,00000E+000	9	...........	-32768,00
	675	13,52	7,74953E-001	1,59191E-004	0,00000E+000	7,74998E-001	0,00000E+000	9	...........	-32768,00
	690	13,82	7,89954E-001	1,63297E-004	0,00000E+000	7,89999E-001	0,00000E+000	9	...........	-32768,00
	705	14,12	7,94963E-001	1,61401E-004	0,00000E+000	7,94999E-001	0,00000E+000	9	...........	-32768,00
	720	14,42	7,79939E-001	1,48588E-004	0,00000E+000	7,79998E-001	0,00000E+000	9	...........	-32768,00
	735	14,72	7,64927E-001	1,38368E-004	0,00000E+000	7,64997E-001	0,00000E+000	9	...........	-32768,00
[...]
	885	17,72	6,14877E-001	7,40023E-005	0,00000E+000	6,14998E-001	0,00000E+000	8	...........	-32768,00
	900	18,02	5,99879E-001	6,90492E-005	0,00000E+000	5,99996E-001	0,00000E+000	8	...........	-32768,00
	915	18,32	5,84882E-001	6,44832E-005	0,00000E+000	5,84995E-001	0,00000E+000	8	...........	-32768,00
	930	18,62	5,69874E-001	6,03835E-005	0,00000E+000	5,69994E-001	0,00000E+000	8	...........	-32768,00
	945	18,92	5,54890E-001	5,64332E-005	0,00000E+000	5,55005E-001	0,00000E+000	8	...........	-32768,00
	960	19,22	5,39894E-001	5,25393E-005	0,00000E+000	5,40004E-001	0,00000E+000	8	...........	-32768,00
	975	19,52	5,24864E-001	4,86682E-005	0,00000E+000	5,25003E-001	0,00000E+000	8	...........	-32768,00
	990	19,82	5,09870E-001	4,47569E-005	0,00000E+000	5,10002E-001	0,00000E+000	8	...........	-32768,00
	1005	20,12	4,94858E-001	4,07637E-005	0,00000E+000	4,95000E-001	0,00000E+000	8	...........	-32768,00
	1020	20,42	4,79875E-001	3,66955E-005	0,00000E+000	4,79999E-001	0,00000E+000	8	...........	-32768,00
	1035	20,72	4,64862E-001	3,23756E-005	0,00000E+000	4,64998E-001	0,00000E+000	8	...........	-32768,00
	1050	21,02	4,49858E-001	2,59329E-005	0,00000E+000	4,49997E-001	0,00000E+000	8	...........	-32768,00
	1065	21,32	4,34856E-001	7,09035E-006	0,00000E+000	4,34996E-001	0,00000E+000	8	...........	-32768,00
	1080	21,62	4,19858E-001	-2,74269E-005	0,00000E+000	4,19994E-001	0,00000E+000	8	...........	-32768,00
	1095	21,92	4,04880E-001	-5,57829E-005	0,00000E+000	4,05006E-001	0,00000E+000	8	...........	-32768,00
	1110	22,22	3,89882E-001	-7,05568E-005	0,00000E+000	3,90004E-001	0,00000E+000	8	...........	-32768,00
	1125	22,52	3,74887E-001	-7,64403E-005	0,00000E+000	3,75003E-001	0,00000E+000	8	...........	-32768,00
	1140	22,82	3,59891E-001	-7,64530E-005	0,00000E+000	3,60002E-001	0,00000E+000	8	...........	-32768,00
	1155	23,12	3,44862E-001	-7,29368E-005	0,00000E+000	3,45001E-001	0,00000E+000	8	...........	-32768,00
	1170	23,42	3,29855E-001	-6,79494E-005	0,00000E+000	3,30000E-001	0,00000E+000	8	...........	-32768,00
	1185	23,72	3,14859E-001	-6,30840E-005	0,00000E+000	3,14998E-001	0,00000E+000	8	...........	-32768,00
	1200	24,02	2,99846E-001	-5,92223E-005	0,00000E+000	2,99997E-001	0,00000E+000	8	...........	-32768,00
	1215	24,32	2,84856E-001	-5,66795E-005	0,00000E+000	2,84996E-001	0,00000E+000	8	...........	-32768,00
	1230	24,62	2,69864E-001	-5,52507E-005	0,00000E+000	2,69995E-001	0,00000E+000	8	...........	-32768,00
	1245	24,92	2,54843E-001	-5,46914E-005	0,00000E+000	2,55006E-001	0,00000E+000	8	...........	-32768,00
	1260	25,22	2,39846E-001	-5,43399E-005	0,00000E+000	2,40005E-001	0,00000E+000	8	...........	-32768,00
	1275	25,52	2,24849E-001	-5,48654E-005	0,00000E+000	2,25004E-001	0,00000E+000	8	...........	-32768,00
	1290	25,82	2,09845E-001	-5,56393E-005	0,00000E+000	2,10003E-001	0,00000E+000	8	...........	-32768,00
	1305	26,12	1,94849E-001	-5,66302E-005	0,00000E+000	1,95001E-001	0,00000E+000	8	...........	-32768,00
	1320	26,42	1,79863E-001	-5,81004E-005	0,00000E+000	1,80000E-001	0,00000E+000	8	...........	-32768,00
	1335	26,72	1,64835E-001	-5,99350E-005	0,00000E+000	1,64999E-001	0,00000E+000	8	...........	-32768,00
	1350	27,02	1,49841E-001	-6,20607E-005	0,00000E+000	1,49998E-001	0,00000E+000	8	...........	-32768,00
	1365	27,32	1,34823E-001	-6,49094E-005	0,00000E+000	1,34997E-001	0,00000E+000	8	...........	-32768,00
	1380	27,62	1,19832E-001	-6,78654E-005	0,00000E+000	1,19995E-001	0,00000E+000	8	...........	-32768,00
	1395	27,92	1,04827E-001	-7,12401E-005	0,00000E+000	1,04994E-001	0,00000E+000	8	...........	-32768,00
	1400	28,02	9,98352E-002	-7,22334E-005	0,00000E+000	1,00006E-001	0,00000E+000	8	...........	-32768,00

File: AgNO3_HOPG_5mM_100mv_1_cv.DTA
EXPLAIN
TAG	CV
TITLE	LABEL	Cyclic Voltammetry	Test &Identifier
DATE	LABEL	30/4/2022	Date
TIME	LABEL	14:19:18	Time
NOTES	NOTES	2	&Notes...
	30/04/22 , 5mM  AgNO3

PSTAT	PSTAT	IFC1000-09004	Potentiostat
VINIT	POTEN	1,00000E-001	F	Initial &E (V)
VLIMIT1	POTEN	1,00000E-001	F	Scan Limit &1 (V)
VLIMIT2	POTEN	8,00000E-001	F	Scan Limit &2 (V)
VFINAL	POTEN	1,00000E-001	F	Final &E (V)
SCANRATE	QUANT	9,99998E+001	&Scan Rate (mV/s)
STEPSIZE	QUANT	1,00000E+000	St&ep Size (mV)
CYCLES	IQUANT	1	C&ycles (#)
IMODE	SELECTOR	0	I/E Range &Mode
IRANGE	QUANT	1,00000E-005	&Max Current (mA)
AREA	QUANT	1,00000E+000	Electrode &Area (cm^2)
ELECTRODETYPE	SELECTOR	0	Electrode Type
STRIPPING	TOGGLE	F	Used for Stripping
POLARITY	TOGGLE	F	Signal Polarity
CONDIT	TWOPARAM	F	1,50000E+001	0,00000E+000	Conditionin&g	Time(s)	E(V)
DELAY	TWOPARAM	F	3,00000E+001	0,00000E+000	Init. De&lay	Time(s)	Stab.(mV/s)
EQDELAY	QUANT	1,00000E+001	Equil. &Time (s)
IRCOMP	SELECTOR	0	IRCom&p
PFCOR	QUANT	5,00000E+001	PF Corr. (ohm)
SAMPLINGMODE	SELECTOR	1	Sampling &Mode
EOC	QUANT	0	Open Circuit (V)
PSTATMODEL	IQUANT	48	Pstat Model
PSTATSECTION	LABEL	IFC1000-09004	Pstat Section
PSTATSERIALNO	LABEL	09004	Pstat Serial Number
CTRLMODE	IQUANT	1	Control Mode
ELECTROMETER	IQUANT	0	RE=0 or CS=1
IESTAB	IQUANT	2	I/E Stability
CASPEED	IQUANT	4	Control Amp Speed
CONVENTION	IQUANT	1	Current Convention
ICHRANGE	IQUANT	2	Ich Range
ICHRANGEMODE	TOGGLE	F	Ich Auto Range
ICHOFFSETENABLE	TOGGLE	F	Ich Offset Enable
ICHOFFSET	QUANT	0	Ich Offset (V)
ICHFILTER	IQUANT	3	Ich Filter
VCHRANGE	IQUANT	2	Vch Range
VCHRANGEMODE	TOGGLE	F	Vch Auto Range
VCHOFFSETENABLE	TOGGLE	F	Vch Offset Enable
VCHOFFSET	QUANT	0	Vch Offset (V)
VCHFILTER	IQUANT	3	Vch Filter
IERANGELOWERLIMIT	IQUANT	4	I/E Range Lower Limit
IERANGEMODE	TOGGLE	T	I/E AutoRange
IERANGE	IQUANT	5	I/E Range
ACHSELECT	IQUANT	0	Ach Select
ACHRANGE	IQUANT	2	Ach Range
ACHOFFSETENABLE	TOGGLE	F	Ach Offset Enable
ACHOFFSET	QUANT	0	Ach Offset (V)
ACHFILTER	IQUANT	1	Ach Filter
CABLEID	IQUANT	14	Cable ID
DCCALDATE	LABEL	3/18/2022	DC Calibration Date
ACCALDATE	LABEL	3/10/2016	AC Calibration Date
FRAMEWORKVERSION	QUANT	7,05	Framework Version
INSTRUMENTVERSION	LABEL	4.21	Instrument Version
CURVE1	TABLE
	Pt	T	Vf	Im	Vu	Sig	Ach	IERange	Over	Temp
	#	s	V vs. Ref.	A	V	V	V	#	bits	deg C
	0	0,01	9,98536E-002	-5,11054E-005	0,00000E+000	1,00006E-001	0,00000E+000	8	...........	-32768,00
	14	0,15	1,13827E-001	-4,27810E-005	0,00000E+000	1,13995E-001	0,00000E+000	8	...........	-32768,00
	28	0,29	1,27837E-001	-3,75954E-005	0,00000E+000	1,27996E-001	0,00000E+000	8	...........	-32768,00
	42	0,43	1,41862E-001	-3,33723E-005	0,00000E+000	1,41997E-001	0,00000E+000	8	...........	-32768,00
	56	0,57	1,55859E-001	-2,97578E-005	0,00000E+000	1,55998E-001	0,00000E+000	8	...........	-32768,00
	70	0,71	1,69861E-001	-2,65894E-005	0,00000E+000	1,69999E-001	0,00000E+000	8	...........	-32768,00
	84	0,85	1,83875E-001	-2,37817E-005	0,00000E+000	1,84000E-001	0,00000E+000	8	...........	-32768,00
	98	0,99	1,97856E-001	-2,11573E-005	0,00000E+000	1,98002E-001	0,00000E+000	8	...........	-32768,00
	112	1,13	2,11860E-001	-1,86876E-005	0,00000E+000	2,12003E-001	0,00000E+000	8	...........	-32768,00
	126	1,27	2,25862E-001	-1,62438E-005	0,00000E+000	2,26004E-001	0,00000E+000	8	...........	-32768,00
	140	1,41	2,39862E-001	-1,39457E-005	0,00000E+000	2,40005E-001	0,00000E+000	8	...........	-32768,00
	154	1,55	2,53866E-001	-1,16720E-005	0,00000E+000	2,54006E-001	0,00000E+000	8	...........	-32768,00
	168	1,69	2,67852E-001	-9,46373E-006	0,00000E+000	2,67995E-001	0,00000E+000	8	...........	-32768,00
	182	1,83	2,81860E-001	-7,21720E-006	0,00000E+000	2,81996E-001	0,00000E+000	8	...........	-32768,00
	196	1,97	2,95879E-001	-4,91602E-006	0,00000E+000	2,95997E-001	0,00000E+000	8	...........	-32768,00
	210	2,11	3,09859E-001	-2,50362E-006	0,00000E+000	3,09998E-001	0,00000E+000	8	...........	-32768,00
	224	2,25	3,23888E-001	1,40102E-007	0,00000E+000	3,23999E-001	0,00000E+000	8	...........	-32768,00
	238	2,39	3,37866E-001	3,01210E-006	0,00000E+000	3,38000E-001	0,00000E+000	8	...........	-32768,00
	252	2,53	3,51853E-001	6,20638E-006	0,00000E+000	3,52001E-001	0,00000E+000	8	...........	-32768,00
	266	2,67	3,65873E-001	9,86721E-006	0,00000E+000	3,66003E-001	0,00000E+000	8	...........	-32768,00
	280	2,81	3,79884E-001	1,41509E-005	0,00000E+000	3,80004E-001	0,00000E+000	8	...........	-32768,00
	294	2,95	3,93867E-001	1,94054E-005	0,00000E+000	3,94005E-001	0,00000E+000	8	...........	-32768,00
	308	3,09	4,07866E-001	2,56445E-005	0,00000E+000	4,08006E-001	0,00000E+000	8	...........	-32768,00
	322	3,23	4,21851E-001	3,26489E-005	0,00000E+000	4,21995E-001	0,00000E+000	8	...........	-32768,00
	336	3,37	4,35876E-001	3,96797E-005	0,00000E+000	4,35996E-001	0,00000E+000	8	...........	-32768,00
	350	3,51	4,49876E-001	4,64678E-005	0,00000E+000	4,49997E-001	0,00000E+000	8	...........	-32768,00
	364	3,65	4,63878E-001	5,32829E-005	0,00000E+000	4,63998E-001	0,00000E+000	8	...........	-32768,00
	378	3,79	4,77892E-001	6,02574E-005	0,00000E+000	4,77999E-001	0,00000E+000	8	...........	-32768,00
	392	3,93	4,91884E-001	6,79182E-005	0,00000E+000	4,92000E-001	0,00000E+000	8	...........	-32768,00
	406	4,07	5,05878E-001	7,68842E-005	0,00000E+000	5,06001E-001	0,00000E+000	8	...........	-32768,00
	420	4,21	5,19888E-001	8,77068E-005	0,00000E+000	5,20002E-001	0,00000E+000	8	...........	-32768,00
	434	4,35	5,33890E-001	1,01206E-004	0,00000E+000	5,34003E-001	0,00000E+000	9	...........	-32768,00
	448	4,49	5,47895E-001	1,17961E-004	0,00000E+000	5,48005E-001	0,00000E+000	9	...........	-32768,00
	462	4,63	5,61884E-001	1,38339E-004	0,00000E+000	5,62006E-001	0,00000E+000	9	...........	-32768,00
	476	4,77	5,75870E-001	1,62401E-004	0,00000E+000	5,75994E-001	0,00000E+000	9	...........	-32768,00
	490	4,91	5,89900E-001	1,90195E-004	0,00000E+000	5,89996E-001	0,00000E+000	9	...........	-32768,00
	504	5,05	6,03907E-001	2,22497E-004	0,00000E+000	6,03997E-001	0,00000E+000	9	...........	-32768,00
	518	5,19	6,17909E-001	2,62213E-004	0,00000E+000	6,17998E-001	0,00000E+000	9	...........	-32768,00
	532	5,33	6,31897E-001	3,08766E-004	0,00000E+000	6,31999E-001	0,00000E+000	9	...........	-32768,00
	546	5,47	6,45906E-001	3,60584E-004	0,00000E+000	6,46000E-001	0,00000E+000	9	...........	-32768,00
	560	5,61	6,59897E-001	4,16140E-004	0,00000E+000	6,60001E-001	0,00000E+000	9	...........	-32768,00
	574	5,75	6,73911E-001	4,74585E-004	0,00000E+000	6,74002E-001	0,00000E+000	9	...........	-32768,00
	588	5,89	6,87906E-001	5,32465E-004	0,00000E+000	6,88003E-001	0,00000E+000	9	...........	-32768,00
	602	6,03	7,01919E-001	5,82564E-004	0,00000E+000	7,02004E-001	0,00000E+000	9	...........	-32768,00
	616	6,17	7,15918E-001	6,10806E-004	0,00000E+000	7,16006E-001	0,00000E+000	9	...........	-32768,00
	630	6,31	7,29918E-001	6,12089E-004	0,00000E+000	7,29994E-001	0,00000E+000	9	...........	-32768,00
	644	6,45	7,43958E-001	5,82912E-004	0,00000E+000	7,43995E-001	0,00000E+000	9	...........	-32768,00
	658	6,59	7,57956E-001	5,26753E-004	0,00000E+000	7,57996E-001	0,00000E+000	9	...........	-32768,00
	672	6,73	7,71942E-001	4,29775E-004	0,00000E+000	7,71998E-001	0,00000E+000	9	...........	-32768,00
	686	6,87	7,85951E-001	3,56894E-004	0,00000E+000	7,85999E-001	0,00000E+000	9	...........	-32768,00
	700	7,01	7,99950E-001	3,18714E-004	0,00000E+000	8,00000E-001	0,00000E+000	9	...........	-32768,00
[...]
	910	9,11	5,89898E-001	5,72247E-005	0,00000E+000	5,89996E-001	0,00000E+000	8	...........	-32768,00
	924	9,25	5,75864E-001	5,31579E-005	0,00000E+000	5,75994E-001	0,00000E+000	8	...........	-32768,00
	938	9,39	5,61876E-001	4,92560E-005	0,00000E+000	5,62006E-001	0,00000E+000	8	...........	-32768,00
	952	9,53	5,47880E-001	4,53150E-005	0,00000E+000	5,48005E-001	0,00000E+000	8	...........	-32768,00
	966	9,67	5,33876E-001	4,12109E-005	0,00000E+000	5,34003E-001	0,00000E+000	8	...........	-32768,00
	980	9,81	5,19888E-001	3,67147E-005	0,00000E+000	5,20002E-001	0,00000E+000	8	...........	-32768,00
	994	9,95	5,05883E-001	3,19689E-005	0,00000E+000	5,06001E-001	0,00000E+000	8	...........	-32768,00
	1008	10,09	4,91887E-001	2,68004E-005	0,00000E+000	4,92000E-001	0,00000E+000	8	...........	-32768,00
	1022	10,23	4,77875E-001	1,97710E-005	0,00000E+000	4,77999E-001	0,00000E+000	8	...........	-32768,00
	1036	10,37	4,63881E-001	4,92466E-007	0,00000E+000	4,63998E-001	0,00000E+000	8	...........	-32768,00
	1050	10,51	4,49889E-001	-4,58462E-005	0,00000E+000	4,49997E-001	0,00000E+000	8	...........	-32768,00
	1064	10,65	4,35876E-001	-1,09093E-004	0,00000E+000	4,35996E-001	0,00000E+000	9	...........	-32768,00
	1078	10,79	4,21859E-001	-1,63038E-004	0,00000E+000	4,21995E-001	0,00000E+000	9	...........	-32768,00
	1092	10,93	4,07885E-001	-1,99019E-004	0,00000E+000	4,08006E-001	0,00000E+000	9	...........	-32768,00
	1106	11,07	3,93873E-001	-2,20072E-004	0,00000E+000	3,94005E-001	0,00000E+000	9	...........	-32768,00
	1120	11,21	3,79874E-001	-2,29913E-004	0,00000E+000	3,80004E-001	0,00000E+000	9	...........	-32768,00
	1134	11,35	3,65872E-001	-2,30551E-004	0,00000E+000	3,66003E-001	0,00000E+000	9	...........	-32768,00
	1148	11,49	3,51846E-001	-2,24023E-004	0,00000E+000	3,52001E-001	0,00000E+000	9	...........	-32768,00
	1162	11,63	3,37863E-001	-2,12018E-004	0,00000E+000	3,38000E-001	0,00000E+000	9	...........	-32768,00
	1176	11,77	3,23874E-001	-1,96989E-004	0,00000E+000	3,23999E-001	0,00000E+000	9	...........	-32768,00
	1190	11,91	3,09867E-001	-1,81259E-004	0,00000E+000	3,09998E-001	0,00000E+000	9	...........	-32768,00
	1204	12,05	2,95875E-001	-1,66668E-004	0,00000E+000	2,95997E-001	0,00000E+000	9	...........	-32768,00
	1218	12,19	2,81858E-001	-1,54271E-004	0,00000E+000	2,81996E-001	0,00000E+000	9	...........	-32768,00
	1232	12,33	2,67843E-001	-1,44079E-004	0,00000E+000	2,67995E-001	0,00000E+000	9	...........	-32768,00
	1246	12,47	2,53849E-001	-1,36098E-004	0,00000E+000	2,54006E-001	0,00000E+000	9	...........	-32768,00
	1260	12,61	2,39851E-001	-1,29781E-004	0,00000E+000	2,40005E-001	0,00000E+000	9	...........	-32768,00
	1274	12,75	2,25841E-001	-1,24948E-004	0,00000E+000	2,26004E-001	0,00000E+000	9	...........	-32768,00
	1288	12,89	2,11838E-001	-1,21337E-004	0,00000E+000	2,12003E-001	0,00000E+000	9	...........	-32768,00
	1302	13,03	1,97852E-001	-1,18466E-004	0,00000E+000	1,98002E-001	0,00000E+000	9	...........	-32768,00
	1316	13,17	1,83867E-001	-1,16597E-004	0,00000E+000	1,84000E-001	0,00000E+000	9	...........	-32768,00
	1330	13,31	1,69852E-001	-1,15562E-004	0,00000E+000	1,69999E-001	0,00000E+000	9	...........	-32768,00
	1344	13,45	1,55853E-001	-1,15398E-004	0,00000E+000	1,55998E-001	0,00000E+000	9	...........	-32768,00
	1358	13,59	1,41839E-001	-1,15979E-004	0,00000E+000	1,41997E-001	0,00000E+000	9	...........	-32768,00
	1372	13,73	1,27833E-001	-1,17155E-004	0,00000E+000	1,27996E-001	0,00000E+000	9	...........	-32768,00
	1386	13,87	1,13828E-001	-1,18921E-004	0,00000E+000	1,13995E-001	0,00000E+000	9	...........	-32768,00
	1400	14,01	9,98469E-002	-1,20958E-004	0,00000E+000	1,00006E-001	0,00000E+000	9	...........	-32768,00