Folder: Date_latest/HOPG_cv/5mM

Note: Readme.md
DATOS DE VOLTAMETRIA CICLICA
 
Limpieza de  archivos .DTA eliminando los componentes explain 
preparando los datos para graficarlos mediante origin, creando carpetas de destino para los datos
utilizando la libreria os de python, funci√≥n open().

File: AgNO3_HOPG_5mM_10mv_1_cv.DTA
EXPLAIN
TAG	CV
TITLE	LABEL	Cyclic Voltammetry	Test &Identifier
DATE	LABEL	30/4/2022	Date
TIME	LABEL	14:27:46	Time
NOTES	NOTES	2	&Notes...
	30/04/22 , 5mM  AgNO3

PSTAT	PSTAT	IFC1000-09004	Potentiostat
VINIT	POTEN	1,00000E-001	F	Initial &E (V)
VLIMIT1	POTEN	1,00000E-001	F	Scan Limit &1 (V)
VLIMIT2	POTEN	8,00000E-001	F	Scan Limit &2 (V)
VFINAL	POTEN	1,00000E-001	F	Final &E (V)
SCANRATE	QUANT	9,99998E+000	&Scan Rate (mV/s)
STEPSIZE	QUANT	1,00000E+000	St&ep Size (mV)
CYCLES	IQUANT	1	C&ycles (#)
IMODE	SELECTOR	0	I/E Range &Mode
IRANGE	QUANT	1,00000E-005	&Max Current (mA)
AREA	QUANT	1,00000E+000	Electrode &Area (cm^2)
ELECTRODETYPE	SELECTOR	0	Electrode Type
STRIPPING	TOGGLE	F	Used for Stripping
POLARITY	TOGGLE	F	Signal Polarity
CONDIT	TWOPARAM	F	1,50000E+001	0,00000E+000	Conditionin&g	Time(s)	E(V)
DELAY	TWOPARAM	F	3,00000E+001	0,00000E+000	Init. De&lay	Time(s)	Stab.(mV/s)
EQDELAY	QUANT	1,00000E+001	Equil. &Time (s)
IRCOMP	SELECTOR	0	IRCom&p
PFCOR	QUANT	5,00000E+001	PF Corr. (ohm)
SAMPLINGMODE	SELECTOR	1	Sampling &Mode
EOC	QUANT	0	Open Circuit (V)
PSTATMODEL	IQUANT	48	Pstat Model
PSTATSECTION	LABEL	IFC1000-09004	Pstat Section
PSTATSERIALNO	LABEL	09004	Pstat Serial Number
CTRLMODE	IQUANT	1	Control Mode
ELECTROMETER	IQUANT	0	RE=0 or CS=1
IESTAB	IQUANT	2	I/E Stability
CASPEED	IQUANT	4	Control Amp Speed
CONVENTION	IQUANT	1	Current Convention
ICHRANGE	IQUANT	2	Ich Range
ICHRANGEMODE	TOGGLE	F	Ich Auto Range
ICHOFFSETENABLE	TOGGLE	F	Ich Offset Enable
ICHOFFSET	QUANT	0	Ich Offset (V)
ICHFILTER	IQUANT	3	Ich Filter
VCHRANGE	IQUANT	2	Vch Range
VCHRANGEMODE	TOGGLE	F	Vch Auto Range
VCHOFFSETENABLE	TOGGLE	F	Vch Offset Enable
VCHOFFSET	QUANT	0	Vch Offset (V)
VCHFILTER	IQUANT	3	Vch Filter
IERANGELOWERLIMIT	IQUANT	4	I/E Range Lower Limit
IERANGEMODE	TOGGLE	T	I/E AutoRange
IERANGE	IQUANT	5	I/E Range
ACHSELECT	IQUANT	0	Ach Select
ACHRANGE	IQUANT	2	Ach Range
ACHOFFSETENABLE	TOGGLE	F	Ach Offset Enable
ACHOFFSET	QUANT	0	Ach Offset (V)
ACHFILTER	IQUANT	1	Ach Filter
CABLEID	IQUANT	14	Cable ID
DCCALDATE	LABEL	3/18/2022	DC Calibration Date
ACCALDATE	LABEL	3/10/2016	AC Calibration Date
FRAMEWORKVERSION	QUANT	7,05	Framework Version
INSTRUMENTVERSION	LABEL	4.21	Instrument Version
CURVE1	TABLE
	Pt	T	Vf	Im	Vu	Sig	Ach	IERange	Over	Temp
	#	s	V vs. Ref.	A	V	V	V	#	bits	deg C
	0	0,1	9,98621E-002	-1,09478E-005	0,00000E+000	1,00006E-001	0,00000E+000	7	....ih..i..	-32768,00
	14	1,5	1,13810E-001	-3,27745E-005	0,00000E+000	1,13995E-001	0,00000E+000	8	...........	-32768,00
	28	2,9	1,27818E-001	-2,82908E-005	0,00000E+000	1,27996E-001	0,00000E+000	8	...........	-32768,00
	42	4,3	1,41829E-001	-2,45555E-005	0,00000E+000	1,41997E-001	0,00000E+000	8	...........	-32768,00
	56	5,7	1,55830E-001	-2,13501E-005	0,00000E+000	1,55998E-001	0,00000E+000	8	...........	-32768,00
	70	7,1	1,69827E-001	-1,84751E-005	0,00000E+000	1,69999E-001	0,00000E+000	8	...........	-32768,00
	84	8,5	1,83836E-001	-1,59134E-005	0,00000E+000	1,84000E-001	0,00000E+000	8	...........	-32768,00
	98	9,9	1,97829E-001	-1,34512E-005	0,00000E+000	1,98002E-001	0,00000E+000	8	...........	-32768,00
	112	11,3	2,11829E-001	-1,10934E-005	0,00000E+000	2,12003E-001	0,00000E+000	8	...........	-32768,00
	126	12,7	2,25829E-001	-8,68151E-006	0,00000E+000	2,26004E-001	0,00000E+000	8	...........	-32768,00
	140	14,1	2,39834E-001	-6,24672E-006	0,00000E+000	2,40005E-001	0,00000E+000	7	...........	-32768,00
	154	15,5	2,53836E-001	-3,81896E-006	0,00000E+000	2,54006E-001	0,00000E+000	7	...........	-32768,00
	168	16,9	2,67829E-001	-1,45163E-006	0,00000E+000	2,67995E-001	0,00000E+000	7	...........	-32768,00
	182	18,3	2,81841E-001	1,03968E-006	0,00000E+000	2,81996E-001	0,00000E+000	7	...........	-32768,00
	196	19,7	2,95850E-001	3,57200E-006	0,00000E+000	2,95997E-001	0,00000E+000	7	...........	-32768,00
	210	21,1	3,09844E-001	6,22045E-006	0,00000E+000	3,09998E-001	0,00000E+000	7	...........	-32768,00
	224	22,5	3,23841E-001	8,85117E-006	0,00000E+000	3,23999E-001	0,00000E+000	7	...........	-32768,00
	238	23,9	3,37850E-001	1,16769E-005	0,00000E+000	3,38000E-001	0,00000E+000	8	...........	-32768,00
	252	25,3	3,51843E-001	1,46250E-005	0,00000E+000	3,52001E-001	0,00000E+000	8	...........	-32768,00
	266	26,7	3,65856E-001	1,77273E-005	0,00000E+000	3,66003E-001	0,00000E+000	8	...........	-32768,00
	280	28,1	3,79860E-001	2,10947E-005	0,00000E+000	3,80004E-001	0,00000E+000	8	...........	-32768,00
	294	29,5	3,93856E-001	2,47441E-005	0,00000E+000	3,94005E-001	0,00000E+000	8	...........	-32768,00
	308	30,9	4,07853E-001	2,88705E-005	0,00000E+000	4,08006E-001	0,00000E+000	8	...........	-32768,00
	322	32,3	4,21838E-001	3,35310E-005	0,00000E+000	4,21995E-001	0,00000E+000	8	...........	-32768,00
	336	33,7	4,35844E-001	3,87032E-005	0,00000E+000	4,35996E-001	0,00000E+000	8	...........	-32768,00
	350	35,1	4,49853E-001	4,37910E-005	0,00000E+000	4,49997E-001	0,00000E+000	8	...........	-32768,00
	364	36,5	4,63859E-001	4,84479E-005	0,00000E+000	4,63998E-001	0,00000E+000	8	...........	-32768,00
	378	37,9	4,77879E-001	5,29454E-005	0,00000E+000	4,77999E-001	0,00000E+000	8	...........	-32768,00
	392	39,3	4,91869E-001	5,77673E-005	0,00000E+000	4,92000E-001	0,00000E+000	8	...........	-32768,00
	406	40,7	5,05868E-001	6,33679E-005	0,00000E+000	5,06001E-001	0,00000E+000	8	...........	-32768,00
	420	42,1	5,19883E-001	7,01657E-005	0,00000E+000	5,20002E-001	0,00000E+000	8	...........	-32768,00
	434	43,5	5,33879E-001	7,86460E-005	0,00000E+000	5,34003E-001	0,00000E+000	8	...........	-32768,00
	448	44,9	5,47877E-001	8,92309E-005	0,00000E+000	5,48005E-001	0,00000E+000	8	...........	-32768,00
	462	46,3	5,61875E-001	1,01517E-004	0,00000E+000	5,62006E-001	0,00000E+000	9	...........	-32768,00
	476	47,7	5,75863E-001	1,13802E-004	0,00000E+000	5,75994E-001	0,00000E+000	9	...........	-32768,00
	490	49,1	5,89901E-001	1,29053E-004	0,00000E+000	5,89996E-001	0,00000E+000	9	...........	-32768,00
	504	50,5	6,03892E-001	1,41495E-004	0,00000E+000	6,03997E-001	0,00000E+000	9	...........	-32768,00
	518	51,9	6,17900E-001	1,29323E-004	0,00000E+000	6,17998E-001	0,00000E+000	9	...........	-32768,00
	532	53,3	6,31910E-001	1,10653E-004	0,00000E+000	6,31999E-001	0,00000E+000	9	...........	-32768,00
	546	54,7	6,45907E-001	1,08274E-004	0,00000E+000	6,46000E-001	0,00000E+000	9	...........	-32768,00
	560	56,1	6,59908E-001	1,09916E-004	0,00000E+000	6,60001E-001	0,00000E+000	9	...........	-32768,00
	574	57,5	6,73909E-001	1,12403E-004	0,00000E+000	6,74002E-001	0,00000E+000	9	...........	-32768,00
	588	58,9	6,87910E-001	1,15243E-004	0,00000E+000	6,88003E-001	0,00000E+000	9	...........	-32768,00
	602	60,3	7,01921E-001	1,18453E-004	0,00000E+000	7,02004E-001	0,00000E+000	9	...........	-32768,00
	616	61,7	7,15921E-001	1,21936E-004	0,00000E+000	7,16006E-001	0,00000E+000	9	...........	-32768,00
	630	63,1	7,29915E-001	1,25391E-004	0,00000E+000	7,29994E-001	0,00000E+000	9	...........	-32768,00
	644	64,5	7,43954E-001	1,28879E-004	0,00000E+000	7,43995E-001	0,00000E+000	9	...........	-32768,00
	658	65,9	7,57947E-001	1,32437E-004	0,00000E+000	7,57996E-001	0,00000E+000	9	...........	-32768,00
	672	67,3	7,71946E-001	1,36201E-004	0,00000E+000	7,71998E-001	0,00000E+000	9	...........	-32768,00
	686	68,7	7,85958E-001	1,39622E-004	0,00000E+000	7,85999E-001	0,00000E+000	9	...........	-32768,00
	700	70,1	7,99956E-001	1,42732E-004	0,00000E+000	8,00000E-001	0,00000E+000	9	...........	-32768,00
[...]
	910	91,1	5,89892E-001	7,84493E-005	0,00000E+000	5,89996E-001	0,00000E+000	8	...........	-32768,00
	924	92,5	5,75854E-001	7,48555E-005	0,00000E+000	5,75994E-001	0,00000E+000	8	...........	-32768,00
	938	93,9	5,61869E-001	7,14032E-005	0,00000E+000	5,62006E-001	0,00000E+000	8	...........	-32768,00
	952	95,3	5,47870E-001	6,79318E-005	0,00000E+000	5,48005E-001	0,00000E+000	8	...........	-32768,00
	966	96,7	5,33879E-001	6,44886E-005	0,00000E+000	5,34003E-001	0,00000E+000	8	...........	-32768,00
	980	98,1	5,19880E-001	6,10461E-005	0,00000E+000	5,20002E-001	0,00000E+000	8	...........	-32768,00
	994	99,5	5,05859E-001	5,76163E-005	0,00000E+000	5,06001E-001	0,00000E+000	8	...........	-32768,00
	1008	100,9	4,91867E-001	5,41561E-005	0,00000E+000	4,92000E-001	0,00000E+000	8	...........	-32768,00
	1022	102,3	4,77879E-001	5,06728E-005	0,00000E+000	4,77999E-001	0,00000E+000	8	...........	-32768,00
	1036	103,7	4,63856E-001	4,69979E-005	0,00000E+000	4,63998E-001	0,00000E+000	8	...........	-32768,00
	1050	105,1	4,49857E-001	3,84356E-005	0,00000E+000	4,49997E-001	0,00000E+000	8	...........	-32768,00
	1064	106,5	4,35854E-001	2,07471E-005	0,00000E+000	4,35996E-001	0,00000E+000	8	...........	-32768,00
	1078	107,9	4,21830E-001	4,24905E-006	0,00000E+000	4,21995E-001	0,00000E+000	7	...........	-32768,00
	1092	109,3	4,07867E-001	-6,25426E-006	0,00000E+000	4,08006E-001	0,00000E+000	7	...........	-32768,00
	1106	110,7	3,93856E-001	-1,19478E-005	0,00000E+000	3,94005E-001	0,00000E+000	8	...........	-32768,00
	1120	112,1	3,79855E-001	-1,36050E-005	0,00000E+000	3,80004E-001	0,00000E+000	8	...........	-32768,00
	1134	113,5	3,65851E-001	-1,31070E-005	0,00000E+000	3,66003E-001	0,00000E+000	8	...........	-32768,00
	1148	114,9	3,51838E-001	-1,22893E-005	0,00000E+000	3,52001E-001	0,00000E+000	8	...........	-32768,00
	1162	116,3	3,37849E-001	-1,21124E-005	0,00000E+000	3,38000E-001	0,00000E+000	8	...........	-32768,00
	1176	117,7	3,23856E-001	-1,25556E-005	0,00000E+000	3,23999E-001	0,00000E+000	8	...........	-32768,00
	1190	119,1	3,09855E-001	-1,35999E-005	0,00000E+000	3,09998E-001	0,00000E+000	8	...........	-32768,00
	1204	120,5	2,95844E-001	-1,51600E-005	0,00000E+000	2,95997E-001	0,00000E+000	8	...........	-32768,00
	1218	121,9	2,81837E-001	-1,70022E-005	0,00000E+000	2,81996E-001	0,00000E+000	8	...........	-32768,00
	1232	123,3	2,67833E-001	-1,89685E-005	0,00000E+000	2,67995E-001	0,00000E+000	8	...........	-32768,00
	1246	124,7	2,53844E-001	-2,11526E-005	0,00000E+000	2,54006E-001	0,00000E+000	8	...........	-32768,00
	1260	126,1	2,39831E-001	-2,35468E-005	0,00000E+000	2,40005E-001	0,00000E+000	8	...........	-32768,00
	1274	127,5	2,25829E-001	-2,63419E-005	0,00000E+000	2,26004E-001	0,00000E+000	8	...........	-32768,00
	1288	128,9	2,11825E-001	-2,91960E-005	0,00000E+000	2,12003E-001	0,00000E+000	8	...........	-32768,00
	1302	130,3	1,97833E-001	-3,15587E-005	0,00000E+000	1,98002E-001	0,00000E+000	8	...........	-32768,00
	1316	131,7	1,83840E-001	-3,42727E-005	0,00000E+000	1,84000E-001	0,00000E+000	8	...........	-32768,00
	1330	133,1	1,69830E-001	-3,74633E-005	0,00000E+000	1,69999E-001	0,00000E+000	8	...........	-32768,00
	1344	134,5	1,55832E-001	-4,07789E-005	0,00000E+000	1,55998E-001	0,00000E+000	8	...........	-32768,00
	1358	135,9	1,41827E-001	-4,40980E-005	0,00000E+000	1,41997E-001	0,00000E+000	8	...........	-32768,00
	1372	137,3	1,27809E-001	-4,73067E-005	0,00000E+000	1,27996E-001	0,00000E+000	8	...........	-32768,00
	1386	138,7	1,13797E-001	-5,04905E-005	0,00000E+000	1,13995E-001	0,00000E+000	8	...........	-32768,00
	1400	140,1	9,98230E-002	-5,37006E-005	0,00000E+000	1,00006E-001	0,00000E+000	8	...........	-32768,00

File: AgNO3_HOPG_5mM_40mv_1_cv.DTA
EXPLAIN
TAG	CV
TITLE	LABEL	Cyclic Voltammetry	Test &Identifier
DATE	LABEL	30/4/2022	Date
TIME	LABEL	14:23:50	Time
NOTES	NOTES	2	&Notes...
	30/04/22 , 5mM  AgNO3

PSTAT	PSTAT	IFC1000-09004	Potentiostat
VINIT	POTEN	1,00000E-001	F	Initial &E (V)
VLIMIT1	POTEN	1,00000E-001	F	Scan Limit &1 (V)
VLIMIT2	POTEN	8,00000E-001	F	Scan Limit &2 (V)
VFINAL	POTEN	1,00000E-001	F	Final &E (V)
SCANRATE	QUANT	3,99999E+001	&Scan Rate (mV/s)
STEPSIZE	QUANT	1,00000E+000	St&ep Size (mV)
CYCLES	IQUANT	1	C&ycles (#)
IMODE	SELECTOR	0	I/E Range &Mode
IRANGE	QUANT	1,00000E-005	&Max Current (mA)
AREA	QUANT	1,00000E+000	Electrode &Area (cm^2)
ELECTRODETYPE	SELECTOR	0	Electrode Type
STRIPPING	TOGGLE	F	Used for Stripping
POLARITY	TOGGLE	F	Signal Polarity
CONDIT	TWOPARAM	F	1,50000E+001	0,00000E+000	Conditionin&g	Time(s)	E(V)
DELAY	TWOPARAM	F	3,00000E+001	0,00000E+000	Init. De&lay	Time(s)	Stab.(mV/s)
EQDELAY	QUANT	1,00000E+001	Equil. &Time (s)
IRCOMP	SELECTOR	0	IRCom&p
PFCOR	QUANT	5,00000E+001	PF Corr. (ohm)
SAMPLINGMODE	SELECTOR	1	Sampling &Mode
EOC	QUANT	0	Open Circuit (V)
PSTATMODEL	IQUANT	48	Pstat Model
PSTATSECTION	LABEL	IFC1000-09004	Pstat Section
PSTATSERIALNO	LABEL	09004	Pstat Serial Number
CTRLMODE	IQUANT	1	Control Mode
ELECTROMETER	IQUANT	0	RE=0 or CS=1
IESTAB	IQUANT	2	I/E Stability
CASPEED	IQUANT	4	Control Amp Speed
CONVENTION	IQUANT	1	Current Convention
ICHRANGE	IQUANT	2	Ich Range
ICHRANGEMODE	TOGGLE	F	Ich Auto Range
ICHOFFSETENABLE	TOGGLE	F	Ich Offset Enable
ICHOFFSET	QUANT	0	Ich Offset (V)
ICHFILTER	IQUANT	3	Ich Filter
VCHRANGE	IQUANT	2	Vch Range
VCHRANGEMODE	TOGGLE	F	Vch Auto Range
VCHOFFSETENABLE	TOGGLE	F	Vch Offset Enable
VCHOFFSET	QUANT	0	Vch Offset (V)
VCHFILTER	IQUANT	3	Vch Filter
IERANGELOWERLIMIT	IQUANT	4	I/E Range Lower Limit
IERANGEMODE	TOGGLE	T	I/E AutoRange
IERANGE	IQUANT	5	I/E Range
ACHSELECT	IQUANT	0	Ach Select
ACHRANGE	IQUANT	2	Ach Range
ACHOFFSETENABLE	TOGGLE	F	Ach Offset Enable
ACHOFFSET	QUANT	0	Ach Offset (V)
ACHFILTER	IQUANT	1	Ach Filter
CABLEID	IQUANT	14	Cable ID
DCCALDATE	LABEL	3/18/2022	DC Calibration Date
ACCALDATE	LABEL	3/10/2016	AC Calibration Date
FRAMEWORKVERSION	QUANT	7,05	Framework Version
INSTRUMENTVERSION	LABEL	4.21	Instrument Version
CURVE1	TABLE
	Pt	T	Vf	Im	Vu	Sig	Ach	IERange	Over	Temp
	#	s	V vs. Ref.	A	V	V	V	#	bits	deg C
	0	0,025	9,98766E-002	-1,09478E-005	0,00000E+000	1,00006E-001	0,00000E+000	7	....ih..i..	-32768,00
	15	0,4	1,14817E-001	-3,19982E-005	0,00000E+000	1,14995E-001	0,00000E+000	8	...........	-32768,00
	30	0,775	1,29842E-001	-2,74679E-005	0,00000E+000	1,29996E-001	0,00000E+000	8	...........	-32768,00
	45	1,15	1,44837E-001	-2,37440E-005	0,00000E+000	1,44997E-001	0,00000E+000	8	...........	-32768,00
	60	1,525	1,59839E-001	-2,06011E-005	0,00000E+000	1,59999E-001	0,00000E+000	8	...........	-32768,00
	75	1,9	1,74829E-001	-1,77539E-005	0,00000E+000	1,75000E-001	0,00000E+000	8	...........	-32768,00
	90	2,275	1,89842E-001	-1,51577E-005	0,00000E+000	1,90001E-001	0,00000E+000	8	...........	-32768,00
	105	2,65	2,04835E-001	-1,27428E-005	0,00000E+000	2,05002E-001	0,00000E+000	8	...........	-32768,00
	120	3,025	2,19854E-001	-1,03621E-005	0,00000E+000	2,20003E-001	0,00000E+000	8	...........	-32768,00
	135	3,4	2,34851E-001	-7,99527E-006	0,00000E+000	2,35005E-001	0,00000E+000	8	...........	-32768,00
	150	3,775	2,49847E-001	-5,68579E-006	0,00000E+000	2,50006E-001	0,00000E+000	7	...........	-32768,00
	165	4,15	2,64849E-001	-3,23899E-006	0,00000E+000	2,64994E-001	0,00000E+000	7	...........	-32768,00
	180	4,525	2,79828E-001	-8,45289E-007	0,00000E+000	2,79996E-001	0,00000E+000	7	...........	-32768,00
	195	4,9	2,94828E-001	1,68076E-006	0,00000E+000	2,94997E-001	0,00000E+000	7	...........	-32768,00
	210	5,275	3,09846E-001	4,27663E-006	0,00000E+000	3,09998E-001	0,00000E+000	7	...........	-32768,00
	225	5,65	3,24847E-001	7,04015E-006	0,00000E+000	3,24999E-001	0,00000E+000	7	...........	-32768,00
	240	6,025	3,39860E-001	1,00308E-005	0,00000E+000	3,40000E-001	0,00000E+000	8	...........	-32768,00
	255	6,4	3,54849E-001	1,33012E-005	0,00000E+000	3,55002E-001	0,00000E+000	8	...........	-32768,00
	270	6,775	3,69853E-001	1,69368E-005	0,00000E+000	3,70003E-001	0,00000E+000	8	...........	-32768,00
	285	7,15	3,84879E-001	2,11342E-005	0,00000E+000	3,85004E-001	0,00000E+000	8	...........	-32768,00
	300	7,525	3,99874E-001	2,59280E-005	0,00000E+000	4,00005E-001	0,00000E+000	8	...........	-32768,00
	315	7,9	4,14856E-001	3,12584E-005	0,00000E+000	4,14994E-001	0,00000E+000	8	...........	-32768,00
	330	8,275	4,29872E-001	3,67694E-005	0,00000E+000	4,29995E-001	0,00000E+000	8	...........	-32768,00
	345	8,65	4,44850E-001	4,22415E-005	0,00000E+000	4,44996E-001	0,00000E+000	8	...........	-32768,00
	360	9,025	4,59842E-001	4,78679E-005	0,00000E+000	4,59998E-001	0,00000E+000	8	...........	-32768,00
	375	9,4	4,74889E-001	5,36404E-005	0,00000E+000	4,74999E-001	0,00000E+000	8	...........	-32768,00
	390	9,775	4,89873E-001	5,98068E-005	0,00000E+000	4,90000E-001	0,00000E+000	8	...........	-32768,00
	405	10,15	5,04876E-001	6,69313E-005	0,00000E+000	5,05001E-001	0,00000E+000	8	...........	-32768,00
	420	10,525	5,19884E-001	7,57550E-005	0,00000E+000	5,20002E-001	0,00000E+000	8	...........	-32768,00
	435	10,9	5,34879E-001	8,69601E-005	0,00000E+000	5,35004E-001	0,00000E+000	8	...........	-32768,00
	450	11,275	5,49887E-001	1,00922E-004	0,00000E+000	5,50005E-001	0,00000E+000	9	...........	-32768,00
	465	11,65	5,64908E-001	1,17159E-004	0,00000E+000	5,65006E-001	0,00000E+000	9	...........	-32768,00
	480	12,025	5,79898E-001	1,35144E-004	0,00000E+000	5,79995E-001	0,00000E+000	9	...........	-32768,00
	495	12,4	5,94889E-001	1,60722E-004	0,00000E+000	5,94996E-001	0,00000E+000	9	...........	-32768,00
	510	12,775	6,09897E-001	1,90480E-004	0,00000E+000	6,09997E-001	0,00000E+000	9	...........	-32768,00
	525	13,15	6,24891E-001	2,12605E-004	0,00000E+000	6,24998E-001	0,00000E+000	9	...........	-32768,00
	540	13,525	6,39905E-001	1,86090E-004	0,00000E+000	6,40000E-001	0,00000E+000	9	...........	-32768,00
	555	13,9	6,54918E-001	1,42858E-004	0,00000E+000	6,55001E-001	0,00000E+000	9	...........	-32768,00
	570	14,275	6,69932E-001	1,33802E-004	0,00000E+000	6,70002E-001	0,00000E+000	9	...........	-32768,00
	585	14,65	6,84930E-001	1,32332E-004	0,00000E+000	6,85003E-001	0,00000E+000	9	...........	-32768,00
	600	15,025	6,99930E-001	1,33403E-004	0,00000E+000	7,00004E-001	0,00000E+000	9	...........	-32768,00
	615	15,4	7,14916E-001	1,35836E-004	0,00000E+000	7,15006E-001	0,00000E+000	9	...........	-32768,00
	630	15,775	7,29916E-001	1,39118E-004	0,00000E+000	7,29994E-001	0,00000E+000	9	...........	-32768,00
	645	16,15	7,44934E-001	1,42654E-004	0,00000E+000	7,44995E-001	0,00000E+000	9	...........	-32768,00
	660	16,525	7,59939E-001	1,46564E-004	0,00000E+000	7,59997E-001	0,00000E+000	9	...........	-32768,00
	675	16,9	7,74955E-001	1,51053E-004	0,00000E+000	7,74998E-001	0,00000E+000	9	...........	-32768,00
	690	17,275	7,89948E-001	1,55477E-004	0,00000E+000	7,89999E-001	0,00000E+000	9	...........	-32768,00
	705	17,65	7,94973E-001	1,54219E-004	0,00000E+000	7,94999E-001	0,00000E+000	9	...........	-32768,00
	720	18,025	7,79939E-001	1,43163E-004	0,00000E+000	7,79998E-001	0,00000E+000	9	...........	-32768,00
	735	18,4	7,64930E-001	1,34219E-004	0,00000E+000	7,64997E-001	0,00000E+000	9	...........	-32768,00
[...]
	885	22,15	6,14874E-001	7,49310E-005	0,00000E+000	6,14998E-001	0,00000E+000	8	...........	-32768,00
	900	22,525	5,99874E-001	7,02522E-005	0,00000E+000	5,99996E-001	0,00000E+000	8	...........	-32768,00
	915	22,9	5,84886E-001	6,58204E-005	0,00000E+000	5,84995E-001	0,00000E+000	8	...........	-32768,00
	930	23,275	5,69872E-001	6,18130E-005	0,00000E+000	5,69994E-001	0,00000E+000	8	...........	-32768,00
	945	23,65	5,54892E-001	5,80130E-005	0,00000E+000	5,55005E-001	0,00000E+000	8	...........	-32768,00
	960	24,025	5,39896E-001	5,42496E-005	0,00000E+000	5,40004E-001	0,00000E+000	8	...........	-32768,00
	975	24,4	5,24872E-001	5,04663E-005	0,00000E+000	5,25003E-001	0,00000E+000	8	...........	-32768,00
	990	24,775	5,09865E-001	4,66064E-005	0,00000E+000	5,10002E-001	0,00000E+000	8	...........	-32768,00
	1005	25,15	4,94863E-001	4,27607E-005	0,00000E+000	4,95000E-001	0,00000E+000	8	...........	-32768,00
	1020	25,525	4,79867E-001	3,87495E-005	0,00000E+000	4,79999E-001	0,00000E+000	8	...........	-32768,00
	1035	25,9	4,64869E-001	3,46333E-005	0,00000E+000	4,64998E-001	0,00000E+000	8	...........	-32768,00
	1050	26,275	4,49870E-001	2,83520E-005	0,00000E+000	4,49997E-001	0,00000E+000	8	...........	-32768,00
	1065	26,65	4,34856E-001	9,49717E-006	0,00000E+000	4,34996E-001	0,00000E+000	8	...........	-32768,00
	1080	27,025	4,19850E-001	-2,21640E-005	0,00000E+000	4,19994E-001	0,00000E+000	8	...........	-32768,00
	1095	27,4	4,04875E-001	-4,63369E-005	0,00000E+000	4,05006E-001	0,00000E+000	8	...........	-32768,00
	1110	27,775	3,89882E-001	-5,86154E-005	0,00000E+000	3,90004E-001	0,00000E+000	8	...........	-32768,00
	1125	28,15	3,74877E-001	-6,34151E-005	0,00000E+000	3,75003E-001	0,00000E+000	8	...........	-32768,00
	1140	28,525	3,59877E-001	-6,33741E-005	0,00000E+000	3,60002E-001	0,00000E+000	8	...........	-32768,00
	1155	28,9	3,44854E-001	-6,02031E-005	0,00000E+000	3,45001E-001	0,00000E+000	8	...........	-32768,00
	1170	29,275	3,29855E-001	-5,58252E-005	0,00000E+000	3,30000E-001	0,00000E+000	8	...........	-32768,00
	1185	29,65	3,14857E-001	-5,21356E-005	0,00000E+000	3,14998E-001	0,00000E+000	8	...........	-32768,00
	1200	30,025	2,99853E-001	-4,94993E-005	0,00000E+000	2,99997E-001	0,00000E+000	8	...........	-32768,00
	1215	30,4	2,84858E-001	-4,79610E-005	0,00000E+000	2,84996E-001	0,00000E+000	8	...........	-32768,00
	1230	30,775	2,69861E-001	-4,72875E-005	0,00000E+000	2,69995E-001	0,00000E+000	8	...........	-32768,00
	1245	31,15	2,54846E-001	-4,73148E-005	0,00000E+000	2,55006E-001	0,00000E+000	8	...........	-32768,00
	1260	31,525	2,39835E-001	-4,79326E-005	0,00000E+000	2,40005E-001	0,00000E+000	8	...........	-32768,00
	1275	31,9	2,24839E-001	-4,88727E-005	0,00000E+000	2,25004E-001	0,00000E+000	8	...........	-32768,00
	1290	32,275	2,09840E-001	-4,99394E-005	0,00000E+000	2,10003E-001	0,00000E+000	8	...........	-32768,00
	1305	32,65	1,94839E-001	-5,13852E-005	0,00000E+000	1,95001E-001	0,00000E+000	8	...........	-32768,00
	1320	33,025	1,79858E-001	-5,30759E-005	0,00000E+000	1,80000E-001	0,00000E+000	8	...........	-32768,00
	1335	33,4	1,64846E-001	-5,51978E-005	0,00000E+000	1,64999E-001	0,00000E+000	8	...........	-32768,00
	1350	33,775	1,49833E-001	-5,77006E-005	0,00000E+000	1,49998E-001	0,00000E+000	8	...........	-32768,00
	1365	34,15	1,34836E-001	-6,07297E-005	0,00000E+000	1,34997E-001	0,00000E+000	8	...........	-32768,00
	1380	34,525	1,19831E-001	-6,37575E-005	0,00000E+000	1,19995E-001	0,00000E+000	8	...........	-32768,00
	1395	34,9	1,04837E-001	-6,70937E-005	0,00000E+000	1,04994E-001	0,00000E+000	8	...........	-32768,00
	1400	35,025	9,98219E-002	-6,83015E-005	0,00000E+000	1,00006E-001	0,00000E+000	8	...........	-32768,00